Accel_x,Accel_y,Accel_z,Gyr_x,Gyr_y,Gyr_z
-1.29,0.02,-0.11,22.19,-44.52,34.09
-1.32,0.13,-0.1,12.95,-50.75,42.77
-1.33,0.22,-0.11,-16.03,-54.46,50.19
-1.33,0.31,-0.15,-11.06,-53.27,57.47
-1.33,0.36,-0.24,-15.47,-46.62,64.19
-1.37,0.37,-0.28,-14.14,-45.85,68.18
-1.33,0.44,-0.3,-4.27,-46.83,78.19
-1.3,0.39,-0.42,4.76,-47.74,83.86
-1.25,0.31,-0.47,4.48,-57.26,88.2
-1.23,0.28,-0.51,-1.05,-68.18,94.43
-1.2,0.2,-0.56,-19.04,-76.86,98.14
-1.18,0.05,-0.57,-37.59,-79.66,97.23
-1.17,-0.16,-0.53,-42.84,-73.29,94.92
-1.18,-0.31,-0.5,-42.91,-62.3,96.11
-1.19,-0.42,-0.47,-44.31,-49.49,94.29
-1.09,-0.42,-0.43,-44.45,-45.01,100.73
-1.01,-0.35,-0.4,-45.78,-40.67,113.05
-0.96,-0.28,-0.32,-48.02,-31.22,126.91
-0.99,-0.2,-0.26,-60.97,-22.05,133.14
-1.01,-0.19,-0.25,-55.93,-13.23,139.65
-1.04,-0.11,-0.3,-46.83,-8.4,144.97
-1.06,-0.04,-0.34,-42.35,-8.4,149.24
-1.08,-0.08,-0.37,-31.71,-13.72,154.56
-1.01,0,-0.43,-32.55,-17.57,155.4
-1.01,0.05,-0.49,-34.79,-19.95,155.82
-0.99,0.17,-0.47,-46.2,-28.63,153.3
-1.04,0.24,-0.44,-54.32,-41.72,144.2
-1.03,0.29,-0.34,-57.89,-50.12,136.64
-1.02,0.34,-0.27,-69.86,-57.26,125.72
-0.99,0.36,-0.2,-94.71,-58.73,114.94
-0.95,0.34,-0.17,-118.09,-60.27,102.48
-0.91,0.25,-0.25,-140.91,-66.08,89.18
-0.84,0.16,-0.34,-154.91,-72.94,79.45
-0.78,-0.01,-0.37,-155.4,-79.87,73.22
-0.74,-0.08,-0.34,-156.03,-85.54,67.97
-0.67,-0.14,-0.31,-154.07,-87.36,62.58
-0.57,-0.23,-0.25,-149.94,-86.38,57.26
-0.5,-0.32,-0.21,-140.49,-81.55,52.92
-0.43,-0.39,-0.17,-124.88,-74.27,51.03
-0.38,-0.43,-0.13,-103.81,-65.73,49.56
-0.33,-0.4,-0.08,-85.26,-56.77,47.81
-0.32,-0.35,-0.04,-68.88,-43.54,46.13
-0.31,-0.27,0.01,-54.74,-32.97,44.66
-0.32,-0.15,0.03,-42.56,-22.33,41.79
-0.35,-0.05,0.05,-37.94,-13.3,35.35
-0.38,0.03,0.05,-31.85,-5.95,28.28
-0.43,0.11,0.06,-23.66,0,17.43
-0.48,0.17,0.06,-14.42,5.25,9.24
-0.53,0.21,0.07,-5.25,10.57,2.8
-0.56,0.25,0.08,1.54,12.53,-3.01
-0.58,0.28,0.09,5.88,13.86,-7.98
-0.59,0.3,0.13,8.82,15.75,-12.67
-0.6,0.29,0.15,10.22,18.41,-35
-0.62,0.28,0.15,11.69,22.4,-22.96
-0.63,0.27,0.14,14.63,28.7,-28.14
-0.64,0.25,0.11,17.43,34.3,-34.3
-0.63,0.2,0.09,22.19,38.43,-40.39
-0.71,0.14,0.21,31.5,37.38,-40.81
-0.88,0.27,0.44,51.03,36.96,-24.64
-1,0.54,0.34,52.01,61.46,-7.63
-1.22,0.72,0.05,30.59,82.11,-6.37
-1.5,0.78,-0.2,12.67,83.09,-6.79
-1.65,0.87,-0.3,16.66,68.18,-9.1
-1.7,0.96,-0.32,15.89,39.97,-20.79
-1.48,0.92,-0.18,-2.8,11.76,-41.51
-1.1,0.64,-0.01,-20.51,2.8,-59.92
-0.84,0.25,0.09,-33.67,6.72,-67.9
-0.66,-0.06,0.05,-37.59,25.76,-70.14
-0.64,-0.08,-0.14,-24.57,53.83,-70.91
-0.74,-0.04,-0.36,2.66,62.72,-64.19
-0.82,0.03,-0.42,31.43,64.68,-54.53
-0.96,0.13,-0.36,45.01,67.48,-45.64
-1.11,0.22,-0.33,49.98,67.48,-40.11
-1.19,0.27,-0.35,44.87,63.98,-40.67
-1.21,0.25,-0.35,37.45,60.97,-45.71
-1.17,0.21,-0.33,34.72,57.61,-49.7
-1.09,0.15,-0.3,39.62,58.17,-51.45
-1.02,0.13,-0.28,46.13,57.33,-51.59
-0.97,0.09,-0.27,54.46,53.06,-48.65
-0.93,0.08,-0.25,62.72,47.6,-44.17
-0.92,0.08,-0.24,67.41,41.65,-42.77
-0.95,0.08,-0.24,70.07,33.18,-43.19
-1.01,0.07,-0.24,69.16,28,-45.78
-1.08,0.06,-0.26,67.83,24.01,-49.77
-1.13,0.03,-0.31,65.52,19.39,-53.27
-1.19,-0.01,-0.37,68.81,16.87,-53.97
-1.2,0.01,-0.42,69.02,14.35,-54.81
-1.17,0.03,-0.47,72.45,12.74,-54.46
-1.11,0.07,-0.49,74.83,14.56,-54.18
-1.07,0.11,-0.51,73.29,15.47,-55.23
-1.01,0.16,-0.5,66.01,15.26,-57.54
-0.99,0.19,-0.47,58.59,14.42,-61.25
-0.96,0.21,-0.44,47.74,14.42,-65.87
-0.96,0.21,-0.39,39.9,12.67,-72.87
-0.97,0.2,-0.34,35.63,11.06,-77.49
-0.99,0.2,-0.28,33.53,8.96,-81.2
-0.98,0.19,-0.24,29.68,8.75,-82.39
-0.98,0.18,-0.18,25.13,10.01,-82.95
-0.93,0.1,-0.21,27.3,11.48,-84.42
-0.91,0.02,-0.29,39.62,17.43,-83.51
-0.81,-0.17,-0.36,71.75,15.68,-76.44
-0.73,-0.09,-0.41,96.67,22.19,-69.93
-0.77,-0.03,-0.43,91.14,17.43,-69.72
-0.74,0,-0.37,48.02,15.54,-73.43
-0.74,-0.04,-0.34,24.43,20.09,-73.08
-0.78,-0.03,-0.29,11.13,23.38,-70.63
-0.83,0.01,-0.24,12.25,26.46,-68.67
-0.87,0.06,-0.23,15.05,24.64,-65.94
-0.89,0.13,-0.19,13.58,27.16,-64.47
-0.92,0.15,-0.17,10.64,28.42,-64.26
-0.92,0.14,-0.2,4.83,26.81,-65.03
-0.91,0.08,-0.28,2.66,26.88,-63.77
-0.91,0.06,-0.34,-0.21,27.51,-61.18
-0.9,-0.02,-0.37,-3.57,28.07,-56.91
-0.89,-0.08,-0.36,-10.85,28.28,-53.69
-0.89,-0.11,-0.34,-18.13,31.78,-51.87
-0.89,-0.12,-0.33,-21.84,34.02,-49.35
-0.92,-0.1,-0.31,-20.86,32.97,-45.01
-0.95,-0.09,-0.32,-15.89,28,-40.32
-0.99,-0.07,-0.32,-9.45,21.07,-39.27
-1,-0.04,-0.31,-9.03,11.62,-37.87
-1,-0.01,-0.3,-9.73,5.74,-35.91
-0.99,0,-0.31,-11.83,3.29,-33.53
-0.98,0,-0.32,-13.79,0.28,-32.55
-0.95,0,-0.32,-16.38,-3.08,-33.25
-0.89,-0.04,-0.37,-18.9,-1.82,-38.78
-0.88,-0.07,-0.34,-16.94,-6.09,-42.49
-0.82,-0.12,-0.36,-12.53,-7.98,-42.63
-0.77,-0.18,-0.39,-10.5,-4.9,-42.14
-0.8,-0.23,-0.42,-7.84,-3.43,-41.37
-0.81,-0.31,-0.47,-0.56,-2.45,-41.3
-0.85,-0.38,-0.54,6.09,-0.77,-42.14
-0.91,-0.35,-0.6,0.63,1.33,-45.22
-1,-0.29,-0.63,-12.46,3.57,-50.61
-1.14,-0.24,-0.69,-24.99,3.85,-54.18
-1.27,-0.24,-0.71,-30.87,1.96,-53.69
-1.35,-0.29,-0.63,-27.3,-1.68,-48.23
-1.42,-0.42,-0.44,-11.48,-7.91,-36.61
-1.41,-0.53,-0.34,8.82,-13.65,-24.43
-1.4,-0.57,-0.33,29.47,-17.85,-13.86
-1.42,-0.47,-0.34,41.65,-22.4,-2.8
-1.45,-0.35,-0.36,44.03,-30.8,4.62
-1.43,-0.23,-0.3,40.95,-37.45,13.16
-1.4,-0.15,-0.22,34.23,-44.24,25.2
-1.36,-0.1,-0.15,34.09,-49.98,40.25
-1.31,-0.04,-0.11,35.49,-54.11,55.86
-1.29,0.03,-0.1,36.33,-57.05,74.55
-1.29,0.13,-0.1,36.75,-57.19,87.78
-1.28,0.2,-0.13,34.72,-52.43,98.77
-1.31,0.25,-0.2,29.68,-45.64,106.75
-1.34,0.27,-0.26,29.54,-35.49,115.01
-1.34,0.29,-0.3,27.23,-30.31,122.43
-1.37,0.24,-0.29,24.5,-34.02,127.75
-1.4,0.19,-0.33,19.74,-43.75,131.04
-1.36,0.1,-0.37,14.42,-53.97,130.62
-1.31,0,-0.4,8.19,-65.66,126.42
-1.26,-0.16,-0.45,-2.45,-67.9,122.99
-1.22,-0.34,-0.48,-11.83,-63.07,119.7
-1.18,-0.46,-0.42,-13.3,-55.3,118.65
-1.14,-0.45,-0.37,-17.85,-46.97,117.95
-1.04,-0.39,-0.36,-21.35,-39.69,122.01
-0.97,-0.31,-0.32,-31.57,-25.69,126.91
-0.95,-0.27,-0.28,-31.29,-15.68,132.79
-0.97,-0.2,-0.31,-29.54,-13.72,135.73
-0.92,-0.16,-0.3,-28.49,-7.14,135.94
-0.94,-0.09,-0.3,-26.04,-4.55,136.5
-0.96,-0.03,-0.25,-25.55,-10.64,142.31
-0.96,0.06,-0.3,-23.03,-14.56,142.8
-0.97,0.1,-0.35,-31.85,-22.75,138.88
-0.93,0.22,-0.36,-42.77,-30.94,131.67
-0.94,0.27,-0.35,-57.89,-41.44,124.95
-0.95,0.33,-0.32,-66.85,-49.42,117.32
-0.97,0.38,-0.27,-86.52,-57.19,107.87
-0.92,0.32,-0.25,-101.22,-59.78,95.62
-0.9,0.25,-0.24,-113.96,-60.06,85.26
-0.81,0.14,-0.29,-125.44,-64.68,78.12
-0.75,0.05,-0.31,-130.34,-69.58,73.22
-0.72,-0.01,-0.28,-134.54,-74.62,70.7
-0.69,-0.07,-0.23,-133.21,-76.37,68.81
-0.66,-0.13,-0.21,-128.94,-75.11,67.62
-0.61,-0.17,-0.18,-121.73,-69.72,67.13
-0.57,-0.17,-0.14,-113.05,-62.51,65.45
-0.52,-0.19,-0.12,-100.03,-57.89,64.26
-0.49,-0.17,-0.08,-83.23,-53.62,62.58
-0.48,-0.15,-0.03,-72.66,-47.95,60.62
-0.45,-0.14,-0.02,-63.63,-40.32,57.96
-0.44,-0.1,-0.02,-56.63,-32.41,54.74
-0.44,-0.05,-0.01,-49.21,-24.08,50.26
-0.45,0,0,-42.63,-16.1,45.71
-0.48,0.05,0.01,-38.36,-10.36,37.38
-0.51,0.09,0.01,-34.16,-4.13,28.42
-0.53,0.13,0.02,-30.38,-0.07,19.67
-0.54,0.13,0.05,-27.44,3.71,11.34
-0.54,0.14,0.07,-22.89,7.91,3.92
-0.55,0.16,0.09,-16.03,13.37,0.84
-0.6,0.18,0.12,-7.28,19.32,-1.33
-0.63,0.21,0.14,0.28,22.68,-2.73
-0.66,0.24,0.14,7.77,25.27,-4.34
-0.68,0.27,0.14,12.88,26.46,-5.46
-0.71,0.31,0.13,16.87,26.81,-6.86
-0.74,0.36,0.12,19.53,27.02,-7.77
-0.76,0.38,0.13,21.14,27.72,-9.73
-0.8,0.38,0.13,21.42,29.33,-11.9
-0.82,0.36,0.13,21.49,30.17,-14.49
-0.82,0.35,0.11,21.07,30.87,-17.78
-0.81,0.36,0.08,20.09,31.64,-22.05
-0.8,0.35,0.08,20.44,32.97,-28.63
-0.86,0.34,0.22,25.97,28.28,-28.7
-0.97,0.46,0.39,34.09,22.68,-20.02
-1.04,0.64,0.41,35.77,39.97,-10.78
-1.15,0.81,0.24,13.65,64.68,-7.07
-1.27,0.93,-0.04,-11.9,75.74,-11.9
-1.37,0.99,-0.28,-16.38,64.12,-21.84
-1.44,0.97,-0.23,-10.92,33.6,-38.36
-1.36,0.77,-0.03,-19.39,15.05,-56.7
-1.2,0.37,0.07,-37.94,11.9,-75.95
-1.01,0.04,0.03,-47.18,13.02,-80.85
-0.71,-0.18,-0.08,-49.49,38.36,-77
-0.65,-0.23,-0.23,-21.84,65.24,-73.64
-0.66,-0.11,-0.5,10.15,77.35,-66.71
-0.73,0.08,-0.53,30.94,77.49,-54.04
-0.9,0.22,-0.41,46.55,74.13,-43.82
-1.16,0.36,-0.31,51.17,71.89,-38.57
-1.29,0.36,-0.26,37.94,65.87,-42
-1.3,0.29,-0.29,23.38,61.74,-48.65
-1.24,0.16,-0.37,18.41,59.43,-55.51
-1.17,0.06,-0.42,26.67,59.15,-57.47
-1.07,0.01,-0.39,39.69,57.19,-55.86
-0.88,0.03,-0.37,52.29,55.44,-52.71
-0.93,0.01,-0.34,58.8,52.5,-50.68
-0.92,0,-0.3,65.8,47.18,-48.16
-0.93,-0.02,-0.3,72.24,41.72,-46.41
-0.96,-0.04,-0.33,80.08,36.54,-43.82
-0.98,-0.04,-0.37,86.1,31.99,-42.07
-1.01,-0.05,-0.42,91,27.86,-41.16
-1.02,-0.03,-0.45,94.08,26.32,-40.53
-1.05,-0.02,-0.48,93.45,24.99,-41.16
-1.06,0.02,-0.49,88.83,25.41,-41.44
-1.06,0.07,-0.48,84.77,26.67,-42.63
-1.07,0.12,-0.43,79.66,25.55,-45.64
-1.06,0.19,-0.43,75.11,22.68,-50.47
-1.03,0.24,-0.44,68.81,18.83,-54.32
-0.98,0.26,-0.44,59.99,17.78,-59.15
-0.95,0.28,-0.45,47.81,18.55,-64.4
-0.96,0.28,-0.44,38.71,18.9,-70.42
-0.99,0.27,-0.35,33.6,17.64,-77.35
-1.02,0.24,-0.24,29.26,17.5,-83.09
-0.98,0.17,-0.22,35.7,14.14,-82.39
-0.92,0.03,-0.26,52.29,15.96,-79.59
-0.91,0.04,-0.22,61.6,16.17,-80.64
-0.85,-0.01,-0.29,65.94,14.35,-75.81
-0.84,-0.03,-0.25,63.84,20.02,-71.89
-0.83,-0.07,-0.27,65.03,23.94,-67.34
-0.76,-0.11,-0.25,62.23,29.33,-60.48
-0.74,-0.08,-0.32,49.35,26.6,-56.07
-0.74,-0.07,-0.3,39.83,23.59,-54.95
-0.76,-0.07,-0.26,37.1,24.01,-52.78
-0.81,0,-0.22,33.04,26.11,-50.54
-0.89,0.03,-0.17,33.74,31.57,-48.23
-0.96,0.1,-0.18,30.17,33.95,-45.85
-1.03,0.1,-0.21,30.1,32.55,-43.75
-1.03,0.11,-0.26,33.04,27.37,-39.55
-0.98,0.13,-0.31,36.75,22.89,-34.93
-0.94,0.1,-0.38,35.56,20.58,-30.38
-0.89,0.06,-0.44,28.21,20.79,-28.49
-0.85,0.05,-0.44,18.62,24.22,-30.1
-0.83,0.05,-0.44,5.39,26.6,-33.6
-0.82,0.05,-0.42,-2.03,30.8,-36.47
-0.88,0.08,-0.39,-6.37,32.27,-36.19
-0.93,0.06,-0.37,-8.82,31.43,-39.06
-0.95,0.05,-0.33,-16.8,28.63,-41.86
-1.02,0.01,-0.28,-18.41,21.98,-42.84
-1.03,-0.01,-0.21,-15.68,10.85,-40.25
-0.99,-0.03,-0.24,-11.2,3.78,-36.26
-0.96,-0.05,-0.28,-5.53,0.28,-34.58
-0.89,-0.03,-0.31,2.38,-4.55,-31.64
-0.83,-0.04,-0.37,6.37,-3.85,-28.7
-0.81,-0.06,-0.41,7.35,-1.82,-25.97
-0.82,-0.1,-0.45,9.1,-1.61,-23.59
-0.85,-0.14,-0.46,10.36,-2.03,-22.26
-0.87,-0.2,-0.46,11.27,-2.8,-21.42
-0.89,-0.24,-0.47,12.74,-3.22,-22.33
-0.87,-0.28,-0.48,14.91,-2.87,-23.94
-0.86,-0.32,-0.49,16.17,-2.03,-26.53
-0.86,-0.36,-0.5,18.48,-2.17,-28.91
-0.88,-0.4,-0.5,21.14,-1.68,-30.59
-0.93,-0.46,-0.54,23.38,-0.98,-32.34
-0.99,-0.44,-0.62,18.06,-0.21,-38.01
-1.06,-0.4,-0.69,6.3,1.68,-44.31
-1.15,-0.38,-0.74,-4.55,0.07,-50.19
-1.18,-0.42,-0.75,-8.47,-1.05,-53.13
-1.25,-0.45,-0.7,-8.75,-2.87,-53.48
-1.31,-0.46,-0.54,-5.67,-5.6,-49.49
-1.34,-0.5,-0.45,6.09,-8.82,-39.06
-1.33,-0.51,-0.38,20.23,-11.55,-29.54
-1.32,-0.5,-0.35,32.48,-15.19,-22.26
-1.31,-0.43,-0.32,42,-19.18,-14.21
-1.3,-0.29,-0.3,47.6,-23.66,-4.34
-1.29,-0.14,-0.3,47.18,-28.98,5.81
-1.26,-0.03,-0.26,45.15,-33.95,16.8
-1.22,0.06,-0.24,39.9,-38.29,28.77
-1.18,0.11,-0.23,32.76,-41.58,36.89
-1.16,0.12,-0.24,24.15,-43.75,44.52
-1.18,0.12,-0.26,16.45,-44.87,52.78
-1.2,0.13,-0.27,9.38,-44.8,61.95
-1.26,0.12,-0.26,4.13,-45.64,71.19
-1.33,0.15,-0.24,-1.26,-47.39,81.41
-1.33,0.2,-0.24,-3.85,-46.48,95.41
-1.32,0.19,-0.25,7.42,-38.71,106.68
-1.32,0.2,-0.24,12.88,-36.33,111.16
-1.34,0.17,-0.27,6.86,-43.4,112.77
-1.3,0.12,-0.33,-1.96,-52.15,113.26
-1.25,0.04,-0.41,-4.69,-59.99,113.82
-1.23,-0.07,-0.46,-4.69,-68.04,113.75
-1.19,-0.22,-0.52,-5.74,-69.86,111.86
-1.15,-0.24,-0.6,-13.3,-62.09,108.43
-1.04,-0.3,-0.55,-27.16,-58.45,105
-0.88,-0.29,-0.52,-47.46,-49.42,114.52
-0.88,-0.21,-0.26,-56.56,-38.85,130.55
-0.94,-0.2,-0.18,-58.59,-21.7,149.17
-0.95,-0.22,-0.03,-57.19,11.48,169.4
-1.09,-0.17,-0.03,-55.79,33.6,176.4
-1.15,-0.2,-0.18,-53.9,25.83,183.68
-1.17,-0.18,-0.43,-50.33,2.45,190.96
-1.06,-0.12,-0.69,-59.92,-10.29,188.51
-1.02,-0.01,-0.74,-43.61,-22.89,190.33
-1.18,0.24,-0.6,-29.54,-47.74,192.22
-1.12,0.4,-0.43,-26.95,-57.75,182.14
-1.1,0.46,-0.18,-46.69,-60.97,166.67
-1.12,0.51,-0.04,-86.66,-65.66,146.16
-1.01,0.42,-0.07,-141.12,-66.92,121.87
-0.91,0.27,-0.26,-166.74,-77.42,101.85
-0.79,0.12,-0.37,-178.22,-87.36,87.08
-0.73,-0.04,-0.43,-174.3,-95.69,75.18
-0.7,-0.12,-0.34,-167.93,-104.72,64.12
-0.62,-0.18,-0.25,-167.51,-108.01,50.54
-0.51,-0.29,-0.17,-169.4,-104.16,39.13
-0.4,-0.44,-0.2,-149.73,-95.97,34.3
-0.31,-0.54,-0.18,-124.25,-88.9,32.2
-0.21,-0.52,-0.11,-105.07,-79.38,30.45
-0.18,-0.47,-0.03,-88.06,-69.09,31.64
-0.14,-0.38,0,-67.55,-51.59,36.75
-0.22,-0.27,0.02,-51.87,-31.85,35.91
-0.27,-0.13,0.01,-40.95,-21,33.6
-0.32,0.02,-0.02,-33.53,-11.69,28.21
-0.39,0.14,-0.03,-29.89,-4.34,21.21
-0.45,0.21,-0.02,-27.09,1.12,12.46
-0.49,0.24,0,-22.54,5.95,1.61
-0.51,0.25,0.04,-15.68,9.66,-5.81
-0.53,0.25,0.07,-8.75,14.35,-12.32
-0.55,0.26,0.08,-1.68,17.92,-17.5
-0.56,0.25,0.1,2.8,21.98,-23.17
-0.57,0.23,0.12,6.3,26.53,-28.28
-0.58,0.19,0.12,11.2,30.94,-32.06
-0.6,0.14,0.13,16.59,36.12,-36.33
-0.59,0.1,0.14,21.35,45.71,-40.11
-0.69,0.06,0.29,28.91,47.6,-42.28
-0.96,0.18,0.63,50.96,37.24,-27.51
-1.05,0.6,0.68,58.52,66.08,-3.08
-1.3,0.89,0.22,29.68,106.82,1.89
-1.58,0.76,-0.28,-0.42,102.97,-9.94
-1.68,0.84,-0.46,16.45,72.8,-14.98
-1.76,0.87,-0.3,17.15,29.54,-25.97
-1.6,0.7,0,-4.62,11.76,-43.4
-1.26,0.47,0.1,-28.14,7.35,-60.97
-0.86,0.09,0.01,-42.49,17.57,-66.85
-0.64,-0.16,-0.03,-31.92,39.97,-68.04
-0.61,-0.16,-0.24,1.96,57.61,-68.81
-0.67,-0.07,-0.33,32.76,67.62,-63.7
-0.97,0.02,-0.32,55.86,78.4,-51.66
-1.19,0.15,-0.4,62.02,77.91,-41.65
-1.31,0.22,-0.46,55.58,70.91,-37.45
-1.33,0.25,-0.43,49.7,62.51,-39.13
-1.25,0.22,-0.38,48.09,56.49,-44.94
-1.16,0.17,-0.33,51.03,56.91,-52.71
-1.07,0.14,-0.3,55.93,59.5,-55.51
-0.97,0.1,-0.31,60.76,58.87,-54.46
-0.93,0.07,-0.31,70.56,56.77,-51.94
-0.9,0.06,-0.34,80.36,49.91,-47.53
-0.89,0.06,-0.36,88.55,43.26,-44.66
-0.91,0.05,-0.36,92.82,38.71,-44.66
-0.95,0.06,-0.37,90.3,36.4,-46.9
-1.03,0.05,-0.43,84.98,31.22,-50.05
-1.07,0.06,-0.45,78.05,28.49,-51.8
-1.1,0.05,-0.48,72.38,27.58,-53.69
-1.11,0.05,-0.48,74.34,26.39,-54.88
-1.1,0.09,-0.49,76.44,23.73,-55.3
-1.1,0.15,-0.45,73.08,21.35,-57.75
-1.07,0.18,-0.41,67.41,19.53,-60.27
-1,0.21,-0.36,58.52,21.63,-62.09
-0.97,0.22,-0.32,49.91,25.55,-64.26
-0.95,0.23,-0.28,46.83,23.45,-67.2
-0.95,0.22,-0.24,47.53,19.95,-72.1
-0.94,0.17,-0.23,52.01,18.9,-76.37
-0.94,0.12,-0.29,52.29,17.99,-78.75
-0.9,0.12,-0.3,51.59,16.24,-79.59
-0.91,0.03,-0.33,47.74,16.03,-78.75
-0.8,-0.05,-0.34,66.5,17.36,-73.15
-0.78,-0.04,-0.32,71.12,21.7,-67.62
-0.78,-0.06,-0.26,70.21,26.88,-62.86
-0.79,-0.03,-0.18,62.44,30.45,-59.64
-0.79,-0.06,-0.21,56.07,28.84,-56.56
-0.82,-0.06,-0.24,49.56,24.78,-52.85
-0.83,-0.04,-0.24,50.61,23.45,-48.86
-0.86,0.01,-0.24,53.27,24.08,-45.5
-0.9,0.08,-0.24,49.35,24.15,-43.68
-0.93,0.12,-0.28,41.09,22.54,-42.7
-0.92,0.13,-0.29,35.21,21.49,-41.3
-0.94,0.19,-0.28,32.62,20.44,-39.27
-0.96,0.2,-0.29,31.64,17.78,-36.4
-0.96,0.2,-0.33,25.62,19.04,-34.79
-0.95,0.15,-0.38,18.55,20.93,-32.83
-0.94,0.11,-0.42,16.8,22.75,-32.27
-0.92,0.07,-0.44,14.77,23.38,-31.29
-0.89,0.04,-0.43,8.68,23.94,-30.24
-0.86,-0.01,-0.43,0.91,26.04,-30.94
-0.87,-0.05,-0.4,-6.23,29.12,-31.08
-0.9,-0.11,-0.37,-15.26,31.29,-31.15
-0.93,-0.17,-0.35,-12.25,31.85,-30.59
-0.94,-0.2,-0.34,-4.27,29.47,-28.84
-0.92,-0.21,-0.36,0.91,23.45,-27.58
-0.95,-0.21,-0.38,3.15,16.52,-30.66
-0.9,-0.19,-0.4,1.82,12.81,-32.76
-0.88,-0.15,-0.4,0,11.97,-31.15
-0.89,-0.12,-0.39,-2.03,12.74,-29.4
-0.92,-0.08,-0.36,-2.94,10.71,-27.58
-0.95,-0.07,-0.32,1.4,5.46,-24.99
-0.94,-0.06,-0.33,6.79,0.63,-20.79
-0.92,-0.06,-0.36,12.18,-1.4,-17.92
-0.88,-0.06,-0.4,15.4,-0.63,-16.66
-0.86,-0.08,-0.44,16.59,0.49,-16.38
-0.86,-0.1,-0.46,17.71,0.98,-16.52
-0.85,-0.13,-0.46,18.13,0.98,-17.36
-0.85,-0.17,-0.45,18.06,1.26,-18.97
-0.86,-0.23,-0.45,19.6,1.26,-20.37
-0.88,-0.29,-0.46,23.1,1.33,-20.44
-0.93,-0.3,-0.48,22.47,1.68,-21.63
-0.99,-0.22,-0.54,9.24,2.03,-23.45
-1.06,-0.18,-0.6,-3.01,1.47,-25.41
-1.12,-0.19,-0.62,-10.01,-0.84,-25.48
-1.16,-0.24,-0.6,-13.09,-2.24,-23.31
-1.19,-0.33,-0.55,-10.43,-2.8,-20.86
-1.21,-0.39,-0.5,-2.52,-1.4,-18.34
-1.23,-0.41,-0.49,6.44,0.21,-16.31
-1.28,-0.4,-0.5,14.98,-1.26,-15.82
-1.3,-0.38,-0.52,18.06,-4.2,-15.33
-1.31,-0.35,-0.53,16.38,-7.21,-15.47
-1.3,-0.32,-0.49,12.32,-11.34,-14.84
-1.26,-0.28,-0.43,10.57,-16.1,-11.34
-1.23,-0.24,-0.39,11.27,-22.68,-4.69
-1.18,-0.2,-0.34,14,-27.3,4.2
-1.16,-0.14,-0.3,16.52,-31.78,14.63
-1.13,-0.08,-0.27,17.57,-35.21,25.06
-1.12,-0.01,-0.27,17.29,-38.64,34.79
-1.14,0.05,-0.26,15.75,-42.91,45.29
-1.16,0.1,-0.25,14.42,-47.04,53.27
-1.16,0.13,-0.26,13.02,-47.46,60.48
-1.16,0.19,-0.28,8.33,-42.28,67.2
-1.17,0.23,-0.31,1.68,-37.17,74.06
-1.2,0.3,-0.32,-4.2,-35.63,81.97
-1.24,0.33,-0.31,-1.54,-37.94,92.4
-1.21,0.35,-0.37,-0.07,-38.71,102.97
-1.24,0.3,-0.39,0.77,-45.22,108.57
-1.24,0.21,-0.45,-0.77,-56.63,113.82
-1.19,0.15,-0.52,-13.09,-61.18,116.41
-1.13,0.08,-0.59,-27.79,-56.28,117.53
-1.21,-0.1,-0.51,-20.72,-49.63,120.05
-1.25,-0.19,-0.48,-17.64,-46.48,118.72
-1.26,-0.32,-0.41,-18.13,-45.43,117.11
-1.16,-0.25,-0.37,-27.37,-38.64,118.09
-1.1,-0.25,-0.27,-37.87,-25.69,121.38
-0.98,-0.24,-0.21,-38.01,-16.24,132.02
-1.01,-0.21,-0.19,-42.49,-5.74,137.06
-1.01,-0.16,-0.23,-50.75,-0.07,138.88
-1.03,-0.1,-0.25,-54.46,-0.63,143.78
-1.12,0.02,-0.3,-54.04,-12.74,150.36
-1.13,0.06,-0.37,-52.99,-19.81,148.96
-1.12,0.17,-0.52,-63.84,-27.02,144.9
-1.12,0.21,-0.59,-72.94,-42.21,138.25
-1.08,0.3,-0.49,-74.97,-53.83,135.52
-1.03,0.28,-0.46,-81.62,-65.38,123.97
-1.04,0.38,-0.36,-98.56,-69.09,109.55
-1.04,0.31,-0.36,-118.58,-84.91,99.19
-0.93,0.28,-0.28,-135.87,-94.57,87.71
-0.87,0.17,-0.3,-157.29,-103.25,75.04
-0.79,0.07,-0.34,-165.55,-106.33,65.94
-0.71,-0.03,-0.32,-169.47,-110.11,59.29
-0.63,-0.17,-0.28,-164.01,-113.61,51.1
-0.51,-0.32,-0.23,-157.43,-111.58,44.24
-0.39,-0.45,-0.19,-147.84,-104.23,39.55
-0.31,-0.52,-0.18,-112.91,-96.74,38.22
-0.23,-0.51,-0.18,-100.17,-81.48,40.18
-0.2,-0.48,-0.11,-78.61,-69.3,38.92
-0.21,-0.37,-0.05,-60.69,-54.32,37.59
-0.26,-0.19,-0.02,-47.74,-41.51,35.63
-0.31,-0.03,-0.03,-40.32,-32.48,32.13
-0.34,0.07,-0.03,-35.84,-21.21,26.46
-0.34,0.11,-0.02,-30.73,-11.62,20.16
-0.35,0.14,0,-21.28,-2.87,16.1
-0.39,0.16,0.04,-13.02,3.36,12.53
-0.45,0.2,0.08,-7.49,7.56,7.49
-0.52,0.22,0.13,-3.99,10.29,0
-0.57,0.23,0.17,-0.98,14.98,-5.88
-0.58,0.21,0.18,3.08,20.86,-11.76
-0.58,0.21,0.17,9.24,25.9,-17.64
-0.57,0.19,0.15,13.72,30.87,-23.66
-0.58,0.17,0.13,18.76,34.79,-29.96
-0.57,0.14,0.14,25.48,38.78,-38.36
-0.6,0.07,0.27,34.86,43.75,-44.73
-0.8,0.1,0.5,49.49,46.55,-36.05
-0.92,0.41,0.52,61.18,69.16,-19.32
-1.09,0.65,0.27,27.51,103.11,-20.37
-1.41,0.66,-0.19,8.05,110.74,-19.11
-1.63,0.82,-0.48,24.01,100.24,-7.49
-1.87,1.01,-0.43,40.81,74.69,-5.81
-1.99,0.91,-0.19,21.28,19.18,-26.25
-1.56,0.6,-0.13,-7.35,10.15,-48.23
-1.08,0.11,-0.04,-30.17,20.44,-53.76
-0.82,-0.17,0.04,-28.7,46.62,-58.38
-0.64,-0.22,-0.44,-2.8,60.83,-67.48
-0.54,-0.21,-0.56,30.1,60.97,-53.83
-0.62,-0.07,-0.4,54.11,69.37,-57.54
-0.91,0.06,-0.28,72.1,83.44,-40.81
-1.13,0.19,-0.32,71.82,82.04,-33.32
-1.24,0.2,-0.36,59.99,72.8,-34.09
-1.26,0.16,-0.35,54.6,64.33,-38.64
-1.28,0.12,-0.32,54.88,60.48,-45.29
-1.26,0.11,-0.33,60.27,56.21,-50.96
-1.22,0.1,-0.32,67.83,49.49,-53.06
-1.18,0.09,-0.3,77.49,37.66,-53.41
-1.13,0.09,-0.28,84.91,27.16,-53.48
-1.07,0.07,-0.29,91.49,19.67,-53.27
-1.04,0.06,-0.33,91.28,15.54,-54.46
-1.02,0.04,-0.38,87.64,14.91,-56
-1.02,0.03,-0.42,80.99,17.01,-59.71
-1.03,0.06,-0.47,74.13,17.57,-62.09
-1.05,0.07,-0.47,67.9,15.26,-64.54
-1.05,0.08,-0.47,65.1,13.37,-64.68
-1.03,0.11,-0.47,62.09,12.18,-64.75
-0.99,0.14,-0.47,57.26,14,-64.75
-0.95,0.16,-0.49,51.87,17.78,-64.89
-0.91,0.15,-0.49,47.25,20.09,-67.06
-0.89,0.12,-0.42,49.14,21.35,-68.74
-0.87,0.09,-0.4,52.99,21.42,-70.21
-0.85,0.05,-0.39,61.81,22.61,-70.42
-0.87,0.05,-0.32,65.8,23.73,-70.7
-0.86,0.06,-0.37,64.82,20.58,-68.95
-0.84,0.01,-0.25,62.23,23.1,-69.44
-0.86,-0.05,-0.23,66.5,27.93,-67.62
-0.86,-0.13,-0.14,74.55,34.72,-62.58
-0.84,-0.1,-0.16,82.88,30.59,-60.13
-0.85,-0.03,-0.2,67.48,24.92,-60.13
-0.82,-0.09,-0.21,60.83,23.1,-58.66
-0.8,-0.1,-0.22,64.61,22.05,-53.9
-0.81,-0.02,-0.31,62.58,18.13,-48.72
-0.83,0.02,-0.3,57.05,19.39,-45.71
-0.84,0.07,-0.28,55.02,22.12,-42.21
-0.87,0.12,-0.29,52.5,23.38,-38.92
-0.93,0.15,-0.32,52.36,22.61,-35.56
-0.96,0.17,-0.34,50.61,21.91,-32.48
-0.98,0.16,-0.37,45.78,22.54,-30.66
-0.97,0.14,-0.37,36.54,23.8,-30.17
-0.96,0.08,-0.37,28.98,25.97,-29.68
-0.94,0.02,-0.37,24.92,25.55,-27.37
-0.9,0,-0.37,21.35,24.99,-25.06
-0.91,0.02,-0.36,19.46,22.89,-20.51
-0.92,-0.02,-0.35,15.96,23.38,-21.49
-0.91,-0.04,-0.36,7.77,24.64,-22.75
-0.92,-0.07,-0.38,4.48,25.27,-22.12
-0.93,-0.09,-0.38,6.37,23.52,-19.39
-0.93,-0.09,-0.37,9.45,20.23,-17.29
-0.94,-0.09,-0.35,12.11,16.94,-16.31
-0.94,-0.11,-0.34,11.76,14.42,-16.24
-0.91,-0.11,-0.34,9.8,14.07,-16.38
-0.89,-0.11,-0.34,7.7,13.44,-18.06
-0.85,-0.12,-0.35,5.74,11.62,-21.63
-0.84,-0.13,-0.34,5.74,7.21,-25.41
-0.85,-0.13,-0.33,9.03,2.17,-26.95
-0.87,-0.12,-0.35,13.44,0.21,-27.58
-0.88,-0.11,-0.38,15.33,0.49,-27.58
-0.89,-0.09,-0.44,17.01,1.89,-27.93
-0.89,-0.1,-0.47,16.59,2.31,-30.24
-0.89,-0.11,-0.48,15.26,3.22,-31.99
-0.91,-0.14,-0.48,15.68,3.71,-32.83
-0.92,-0.2,-0.48,19.46,3.36,-32.13
-0.96,-0.23,-0.47,20.58,2.52,-31.43
-1.02,-0.18,-0.54,14,1.4,-30.94
-1.09,-0.12,-0.6,0.91,1.89,-31.5
-1.16,-0.12,-0.62,-8.05,0.7,-32.27
-1.21,-0.21,-0.61,-12.88,-1.4,-31.85
-1.25,-0.33,-0.58,-12.46,-1.12,-29.61
-1.3,-0.4,-0.53,-6.86,-0.42,-25.69
-1.38,-0.42,-0.49,2.52,-1.33,-19.88
-1.46,-0.4,-0.45,13.65,-6.72,-13.65
-1.52,-0.37,-0.43,22.05,-14.91,-6.3
-1.51,-0.33,-0.4,27.37,-23.24,-0.84
-1.43,-0.29,-0.36,31.08,-30.8,5.04
-1.36,-0.26,-0.33,34.02,-35.63,13.51
-1.3,-0.22,-0.3,35.98,-39.69,24.15
-1.27,-0.18,-0.25,37.17,-45.29,36.26
-1.23,-0.13,-0.23,35.77,-51.1,47.95
-1.2,-0.08,-0.21,31.99,-56.84,61.46
-1.2,-0.04,-0.19,27.09,-61.67,71.26
-1.18,-0.01,-0.18,22.47,-63.14,81.13
-1.16,0.03,-0.22,19.6,-55.79,91.07
-1.15,0.08,-0.3,17.5,-43.96,97.65
-1.17,0.1,-0.38,15.19,-34.86,101.43
-1.17,0.15,-0.41,15.26,-31.22,104.3
-1.19,0.2,-0.38,22.05,-31.64,111.93
-1.15,0.21,-0.39,22.82,-29.4,116.55
-1.14,0.15,-0.41,21.42,-31.92,118.72
-1.12,0.12,-0.42,13.72,-39.34,118.58
-1.08,0.07,-0.44,3.43,-47.25,118.51
-1.05,0,-0.46,-4.69,-48.16,118.02
-1.08,-0.06,-0.43,-11.76,-38.15,113.68
-1.12,-0.08,-0.49,-24.99,-31.08,110.6
-1.08,-0.15,-0.44,-38.85,-28.42,107.8
-1.02,-0.14,-0.37,-40.88,-26.11,108.15
-0.99,-0.15,-0.32,-42.91,-22.75,109.27
-1.01,-0.14,-0.19,-37.87,-16.45,114.73
-0.98,-0.16,-0.07,-29.68,-13.09,123.06
-0.99,-0.12,-0.04,-31.5,-12.04,131.67
-1.03,-0.05,-0.08,-37.73,-14.98,136.36
-1.01,0.02,-0.16,-46.13,-21.42,140.14
-1,0.09,-0.23,-51.24,-28,141.26
-1.03,0.17,-0.31,-57.47,-37.31,137.62
-0.99,0.19,-0.28,-58.87,-40.67,130.76
-1.02,0.27,-0.33,-73.57,-47.74,121.73
-0.98,0.3,-0.37,-84.28,-55.37,109.76
-0.99,0.38,-0.27,-98.49,-63.56,100.31
-0.96,0.34,-0.34,-111.93,-74.13,93.31
-0.91,0.28,-0.32,-128.73,-79.24,86.66
-0.88,0.2,-0.31,-144.06,-84.35,80.01
-0.82,0.09,-0.36,-154.35,-89.25,75.11
-0.75,-0.06,-0.35,-152.74,-93.24,69.79
-0.69,-0.15,-0.31,-148.4,-98.35,65.73
-0.62,-0.25,-0.23,-139.16,-102.48,59.43
-0.5,-0.32,-0.15,-122.5,-89.88,58.52
-0.47,-0.34,-0.08,-100.73,-78.47,58.31
-0.45,-0.33,-0.03,-81.2,-66.36,57.82
-0.45,-0.27,-0.03,-65.8,-54.39,57.33
-0.46,-0.18,-0.03,-52.64,-45.71,58.03
-0.48,-0.06,-0.02,-42.56,-37.87,55.44
-0.5,0.04,0,-36.68,-29.54,50.89
-0.51,0.11,0,-33.95,-23.59,43.82
-0.52,0.14,0,-31.5,-17.36,36.89
-0.54,0.15,0.01,-27.86,-12.25,29.82
-0.56,0.18,0.02,-24.01,-9.1,23.24
-0.56,0.19,0.05,-20.44,-6.51,14.56
-0.55,0.2,0.09,-16.45,-2.24,9.1
-0.55,0.2,0.11,-11.69,2.8,5.04
-0.57,0.23,0.14,-5.25,7.14,2.52
-0.61,0.25,0.17,-0.49,11.41,-0.42
-0.65,0.29,0.19,3.64,14.77,-3.57
-0.67,0.32,0.19,6.23,16.59,-8.47
-0.69,0.34,0.17,8.54,18.13,-11.9
-0.7,0.36,0.14,11.13,19.95,-14.42
-0.71,0.37,0.12,13.65,21.35,-16.59
-0.7,0.37,0.11,17.92,22.61,-17.92
-0.7,0.36,0.11,20.51,23.52,-19.6
-0.71,0.35,0.1,22.4,24.92,-21.49
-0.71,0.34,0.09,24.01,26.81,-24.29
-0.72,0.34,0.07,25.34,28.84,-27.58
-0.72,0.34,0.06,25.76,32.41,-32.06
-0.73,0.33,0.04,25.41,35.84,-37.45
-0.77,0.3,0.07,28.7,36.54,-41.09
-1.13,0.38,0.57,47.81,4.9,-26.53
-1.6,0.8,0.82,71.68,-10.01,17.01
-1.57,1.47,0.31,46.13,60.34,56.49
-1.69,1.25,-0.18,-17.92,61.46,11.97
-1.43,0.69,-0.26,-43.89,32.41,-36.82
-0.94,0.43,-0.06,-41.93,22.33,-62.65
-0.69,0.19,-0.05,-32.48,21.63,-73.5
-0.59,-0.01,0.12,-23.59,28.7,-66.78
-0.62,-0.14,0.28,-1.54,44.73,-48.79
-0.66,0,-0.03,7.98,60.13,-42.42
-0.7,0.13,-0.26,14.21,58.94,-39.13
-0.93,0.25,-0.19,33.32,60.97,-32.55
-1.17,0.34,-0.17,54.39,70.91,-30.73
-1.31,0.38,-0.34,49.91,71.61,-36.54
-1.33,0.31,-0.41,39.2,62.3,-45.08
-1.26,0.24,-0.35,34.79,64.4,-51.8
-1.19,0.22,-0.4,34.09,69.16,-56.28
-1.05,0.22,-0.51,38.57,64.68,-58.38
-0.94,0.25,-0.48,44.24,63.42,-57.54
-0.9,0.23,-0.36,49.49,64.4,-56.07
-0.9,0.22,-0.24,48.79,66.15,-53.06
-0.91,0.18,-0.25,50.05,66.85,-49.98
-0.92,0.11,-0.29,55.72,64.05,-48.16
-0.93,0.05,-0.32,63.91,57.54,-46.62
-0.96,0,-0.33,74.69,47.95,-44.17
-0.99,-0.04,-0.33,89.46,39.48,-42.14
-1,-0.07,-0.34,100.59,34.58,-40.46
-1.03,-0.06,-0.39,105.84,32.83,-40.95
-1.04,-0.06,-0.4,109.2,33.32,-41.3
-1.05,-0.02,-0.41,106.82,35.07,-42.35
-1.06,0.03,-0.42,100.52,35.49,-45.22
-1.07,0.06,-0.42,94.64,33.25,-47.53
-1.06,0.09,-0.42,90.37,29.05,-50.82
-1.05,0.12,-0.41,90.23,24.78,-54.6
-1.03,0.15,-0.39,87.57,22.96,-56.49
-1.03,0.21,-0.39,80.29,23.24,-61.25
-1.01,0.23,-0.38,71.47,24.85,-65.31
-0.98,0.22,-0.39,66.01,25.13,-67.9
-0.95,0.22,-0.37,63.21,24.08,-70.7
-0.93,0.22,-0.35,61.25,22.68,-73.08
-0.91,0.21,-0.33,58.66,23.24,-75.81
-0.9,0.16,-0.33,57.26,21.84,-78.05
-0.86,0.09,-0.32,63.56,24.71,-77.49
-0.84,0.09,-0.3,61.04,25.69,-76.44
-0.83,0.01,-0.29,53.76,25.06,-75.53
-0.78,-0.02,-0.34,58.17,21.84,-73.36
-0.76,-0.05,-0.33,63.21,21.21,-69.72
-0.78,-0.03,-0.21,63.42,25.9,-66.15
-0.82,-0.01,-0.17,51.8,24.15,-62.51
-0.86,-0.03,-0.17,39.76,19.6,-59.01
-0.89,-0.04,-0.16,33.6,16.87,-55.3
-0.91,-0.04,-0.21,33.88,15.89,-50.47
-0.91,-0.03,-0.28,40.04,17.85,-45.5
-0.89,0,-0.33,43.47,19.88,-40.88
-0.89,0.02,-0.4,45.36,18.41,-36.47
-0.89,0.04,-0.43,46.9,17.64,-31.43
-0.9,0.06,-0.44,42.98,16.87,-29.75
-0.91,0.02,-0.46,38.99,15.47,-25.9
-0.9,0,-0.45,39.76,15.89,-23.59
-0.92,-0.01,-0.43,38.92,16.31,-23.45
-0.93,-0.03,-0.43,34.02,14.91,-22.96
-0.93,-0.05,-0.41,29.19,12.32,-22.4
-0.92,-0.08,-0.41,26.74,9.87,-20.72
-0.9,-0.1,-0.4,25.97,8.89,-18.83
-0.89,-0.12,-0.39,26.53,10.36,-17.78
-0.88,-0.16,-0.42,27.86,10.85,-16.87
-0.85,-0.2,-0.44,28.63,11.13,-17.15
-0.83,-0.22,-0.46,28.84,12.39,-17.78
-0.82,-0.24,-0.46,28.49,14.07,-18.62
-0.82,-0.25,-0.44,27.23,14.28,-19.39
-0.83,-0.26,-0.41,24.29,13.65,-20.23
-0.86,-0.27,-0.38,22.47,13.09,-20.65
-0.88,-0.27,-0.35,21.42,12.11,-21.35
-0.89,-0.26,-0.33,22.61,11.34,-21.42
-0.9,-0.25,-0.34,24.36,10.78,-21.56
-0.89,-0.26,-0.35,25.83,11.13,-22.05
-0.86,-0.26,-0.36,25.48,11.34,-23.31
-0.84,-0.27,-0.38,22.12,10.78,-24.78
-0.85,-0.26,-0.35,24.22,11.83,-25.41
-0.87,-0.23,-0.36,24.29,10.71,-25.97
-0.9,-0.21,-0.38,25.13,9.94,-26.6
-0.92,-0.17,-0.42,26.11,10.71,-27.3
-0.93,0,-0.45,26.18,10.29,-28.49
-0.91,-0.09,-0.48,26.39,10.43,-29.05
-0.88,-0.07,-0.5,27.23,11.55,-28.42
-0.87,-0.1,-0.52,28.35,12.18,-26.88
-0.88,-0.13,-0.52,30.8,12.74,-24.43
-0.9,-0.17,-0.51,33.81,12.95,-21.07
-0.91,-0.19,-0.5,38.92,11.97,-17.08
-0.91,-0.2,-0.5,45.99,10.43,-11.48
-0.91,-0.19,-0.51,52.64,9.17,-7.07
-0.92,-0.18,-0.52,56.49,7.84,-2.66
-0.92,-0.17,-0.52,57.19,6.09,-0.07
-0.94,-0.16,-0.51,54.32,4.83,1.05
-0.99,-0.12,-0.51,49.77,2.24,2.52
-1.06,-0.07,-0.49,41.79,0.28,5.81
-1.11,-0.04,-0.44,33.04,0.07,9.66
-1.12,-0.06,-0.34,27.51,2.1,15.12
-1.2,-0.01,-0.22,22.89,2.03,25.06
-1.3,-0.03,-0.14,26.46,0.98,33.46
-1.33,-0.05,-0.11,27.44,-3.64,43.47
-1.34,-0.09,-0.08,31.43,-12.67,53.62
-1.29,-0.14,-0.07,38.01,-23.17,63.77
-1.22,-0.15,-0.04,40.18,-32.2,70.7
-1.19,-0.15,-0.03,40.39,-39.97,76.16
-1.2,-0.14,-0.02,40.25,-47.53,80.99
-1.17,-0.12,-0.04,41.65,-55.37,87.22
-1.15,-0.11,-0.11,43.26,-61.25,95.83
-1.1,-0.1,-0.16,42.63,-64.89,123.97
-1.04,-0.15,-0.22,37.31,-66.36,118.09
-1.01,-0.2,-0.29,22.75,-68.32,121.8
-0.96,-0.36,-0.34,3.78,-62.3,121.59
-0.99,-0.49,-0.31,8.47,-51.17,123.76
-1.04,-0.66,-0.33,27.51,-48.51,130.27
-1.07,-0.74,-0.39,47.18,-46.34,137.76
-1.05,-0.81,-0.39,61.95,-38.22,142.1
-0.99,-0.81,-0.39,67.48,-29.68,141.47
-1.12,-0.76,-0.43,76.09,-21.28,137.69
-0.96,-0.6,-0.41,68.95,-14.91,132.02
-0.94,-0.43,-0.4,55.37,-11.27,123.34
-0.99,-0.38,-0.33,50.61,-14,113.89
-0.99,-0.38,-0.3,49.84,-19.25,103.81
-0.96,-0.34,-0.29,48.09,-19.67,97.79
-0.96,-0.31,-0.22,44.24,-21.42,93.8
-0.94,-0.3,-0.17,39.06,-24.92,89.67
-0.91,-0.27,-0.15,36.68,-26.04,87.78
-0.88,-0.24,-0.16,32.62,-27.23,85.12
-0.84,-0.24,-0.19,26.95,-26.74,79.59
-0.76,-0.3,-0.24,28.56,-23.38,75.04
-0.74,-0.33,-0.27,35.91,-25.06,70.98
-0.73,-0.29,-0.29,32.55,-25.9,66.15
-0.72,-0.28,-0.29,28.49,-24.43,61.6
-0.73,-0.27,-0.26,30.73,-24.99,56.91
-0.75,-0.26,-0.22,34.65,-25.34,52.5
-0.75,-0.25,-0.2,37.24,-24.01,47.88
-0.74,-0.26,-0.21,38.5,-21.84,42.14
-0.73,-0.27,-0.24,39.27,-21.07,35.07
-0.67,-0.29,-0.25,42.98,-15.12,28.84
-0.63,-0.28,-0.28,48.44,-10.22,23.8
-0.61,-0.26,-0.27,56,-6.16,19.04
-0.59,-0.2,-0.27,61.88,-0.98,15.33
-0.61,-0.16,-0.27,68.67,5.95,11.9
-0.63,-0.08,-0.25,69.79,11.06,7.49
-0.66,-0.04,-0.27,71.4,16.03,4.48
-0.76,0.04,-0.26,71.75,20.02,3.71
-0.83,0.1,-0.23,67.34,17.01,3.22
-0.9,0.14,-0.22,61.04,13.58,2.52
-0.93,0.19,-0.22,59.5,11.34,3.29
-0.96,0.22,-0.21,57.54,10.64,3.71
-0.97,0.28,-0.21,55.02,10.5,2.94
-0.97,0.34,-0.22,53.13,12.95,3.71
-0.97,0.42,-0.23,47.39,17.29,6.23
-0.97,0.51,-0.22,41.72,22.68,7
-0.99,0.56,-0.2,39.06,26.81,8.54
-1.03,0.59,-0.15,35.77,27.44,10.57
-1.08,0.59,-0.1,32.55,26.11,13.51
-1.13,0.55,-0.01,30.24,24.22,14
-1.35,0.49,0.08,32.27,18.2,10.29
-1.32,0.42,0.11,36.26,6.58,1.68
-1.37,0.34,0.1,36.05,-11.41,-8.68
-1.33,0.27,0.12,35.7,-27.09,-14.49
-1.28,0.27,0.16,35.91,-32.62,-13.02
-1.21,0.3,0.14,34.44,-29.68,-7.49
-1.15,0.27,0.04,33.04,-22.96,-4.9
-1.08,0.21,-0.05,32.55,-16.1,-5.6
-1,0.12,-0.09,30.38,-12.81,-9.31
-0.93,0.03,-0.12,30.8,-9.87,-15.54
-0.89,-0.08,-0.16,32.69,-5.81,-23.94
-0.9,-0.26,-0.24,35,0.42,-33.53
-0.9,-0.41,-0.23,42.14,11.76,-36.33
-0.93,-0.45,-0.19,52.08,24.01,-30.87
-0.97,-0.35,-0.17,58.59,39.62,-20.23
-1,-0.26,-0.21,63.56,47.53,-11.2
-1.08,-0.14,-0.34,65.38,50.47,-6.58
-1.14,0.01,-0.43,58.87,50.33,-0.49
-1.19,0.08,-0.4,58.17,48.86,6.16
-1.16,0.14,-0.33,63.7,46.83,14.07
-1.01,0.19,-0.38,73.85,44.31,18.83
-0.99,0.21,-0.4,83.79,39.69,21.49
-0.92,0.12,-0.38,99.4,31.57,22.33
-0.86,-0.04,-0.35,110.74,25.83,19.53
-0.77,-0.16,-0.35,115.01,31.15,13.79
-0.72,-0.22,-0.4,111.51,39.48,13.79
-0.66,-0.25,-0.44,105.21,40.88,16.59
-0.65,-0.29,-0.5,99.61,38.22,17.71
-0.7,-0.3,-0.54,94.99,37.45,15.75
-0.73,-0.31,-0.55,94.78,40.18,8.4
-0.8,-0.32,-0.58,98.21,41.58,0.91
-0.86,-0.28,-0.59,97.23,39.41,-4.48
-0.89,-0.2,-0.61,93.24,36.54,-6.93
-0.89,-0.11,-0.65,78.47,34.79,-7.63
-0.87,-0.1,-0.64,67.27,36.54,-6.51
-0.88,-0.1,-0.59,63.84,33.74,-5.53
-0.86,-0.07,-0.57,59.71,30.8,-5.53
-0.83,-0.07,-0.54,58.73,30.31,-4.97
-0.83,-0.08,-0.54,59.08,30.03,-3.99
-0.81,-0.09,-0.54,59.99,31.71,-2.03
-0.8,-0.15,-0.56,63.07,31.29,0.7
-0.82,-0.19,-0.57,70.63,28.84,3.64
-0.82,-0.21,-0.58,80.01,25.41,7.28
-0.8,-0.26,-0.57,89.11,24.01,11.06
-0.81,-0.27,-0.53,99.05,25.76,15.82
-0.8,-0.24,-0.51,104.72,28.77,21.35
-0.79,-0.18,-0.49,108.29,30.1,26.04
-0.79,-0.13,-0.46,109.48,30.73,30.45
-0.79,-0.09,-0.46,108.29,27.79,32.34
-0.78,-0.11,-0.47,100.38,24.57,31.15
-0.79,-0.12,-0.49,96.95,25.83,30.31
-0.82,-0.12,-0.51,94.15,21.56,28.84
-0.84,-0.11,-0.52,88.55,18.27,27.23
-0.87,-0.12,-0.51,86.03,17.78,26.04
-0.89,-0.13,-0.5,88.97,20.3,26.53
-0.91,-0.14,-0.56,92.33,18.55,27.58
-0.92,-0.1,-0.56,92.47,16.8,27.93
-0.97,-0.09,-0.48,86.8,15.19,25.9
-0.93,-0.12,-0.48,83.72,14.28,26.46
-0.91,-0.12,-0.49,86.24,16.24,29.19
-0.89,-0.12,-0.49,92.4,18.2,31.64
-0.87,-0.13,-0.5,97.23,18.27,33.25
-0.85,-0.16,-0.47,104.51,19.46,33.95
-0.81,-0.2,-0.45,108.43,19.32,36.05
-0.93,-0.15,-0.42,110.32,17.64,34.44
-0.86,-0.21,-0.47,107.66,21.35,27.65
-0.89,-0.21,-0.47,94.64,19.53,18.9
-0.92,-0.2,-0.44,81.34,13.93,12.32
-0.9,-0.19,-0.43,75.25,12.6,8.89
-0.89,-0.18,-0.45,71.12,12.11,6.58
-0.88,-0.17,-0.46,69.44,11.34,4.27
-0.87,-0.15,-0.46,67.41,11.55,1.61
-0.85,-0.13,-0.48,64.75,11.83,-2.03
-0.83,-0.12,-0.49,62.16,12.11,-4.34
-0.82,-0.11,-0.49,59.78,13.23,-6.16
-0.83,-0.13,-0.49,58.52,13.37,-7.91
-0.88,-0.16,-0.51,58.59,12.95,-10.22
-0.89,-0.16,-0.52,61.18,11.97,-12.25
-0.88,-0.16,-0.52,64.47,10.71,-13.58
-0.88,-0.14,-0.5,66.43,9.66,-13.58
-0.87,-0.12,-0.47,66.22,8.75,-12.88
-0.88,-0.1,-0.45,63.98,7.49,-10.36
-0.89,-0.11,-0.42,64.26,6.58,-5.81
-0.92,-0.08,-0.4,65.8,5.11,-0.77
-0.92,-0.07,-0.38,69.79,5.25,5.39
-0.94,-0.06,-0.38,74.13,3.99,13.72
-0.96,-0.05,-0.38,79.03,1.96,18.9
-0.98,-0.04,-0.36,82.53,0.21,23.24
-1,-0.04,-0.34,84.28,-2.66,25.13
-0.99,-0.04,-0.35,87.15,-6.3,26.04
-1,0.01,-0.37,82.88,-11.48,27.93
-1.11,0.07,-0.37,69.58,-15.05,26.32
-1.15,0.07,-0.42,54.53,-18.55,26.32
-1.19,0.06,-0.38,38.64,-23.8,28.91
-1.19,0.03,-0.29,32.55,-26.53,33.88
-1.21,-0.02,-0.17,53.06,-28.14,42.35
-1.28,-0.05,-0.06,45.64,-32.13,53.2
-1.37,-0.06,0.06,60.55,-39.34,65.73
-1.39,0,0.49,60.27,-39.2,75.74
-1.43,-0.11,-0.05,49.7,-61.6,89.04
-1.3,-0.12,-0.25,54.18,-81.06,98.56
-1.17,-0.19,-0.38,45.43,-77.42,105.56
-1.16,-0.32,-0.36,51.94,-70.21,116.2
-1.17,-0.46,-0.4,52.71,-69.09,129.36
-1.19,-0.62,-0.42,52.99,-66.99,139.93
-1.2,-0.69,-0.44,47.88,-63.84,147.07
-1.25,-0.72,-0.42,48.86,-55.16,152.46
-1.24,-0.67,-0.5,44.8,-43.96,157.92
-1.13,-0.65,-0.49,45.85,-35.98,167.58
-1.16,-0.51,-0.54,41.65,-41.72,171.99
-1.13,-0.46,-0.51,50.33,-41.58,170.24
-1.16,-0.41,-0.45,79.94,-33.53,172.13
-1.24,-0.35,-0.34,96.11,-43.54,166.53
-1.38,-0.26,-0.04,117.95,-57.33,174.3
-1.44,-0.24,0.07,125.65,-73.64,176.12
-1.36,-0.16,0.02,113.82,-62.02,172.2
-1.3,-0.09,-0.09,87.78,-49.21,170.87
-1.28,-0.05,-0.2,70.63,-44.87,172.76
-1.26,0.05,-0.33,53.97,-49.7,175.7
-1.21,0.08,-0.35,42.56,-55.02,177.52
-1.23,0.16,-0.3,36.61,-67.55,173.74
-1.23,0.17,-0.28,17.78,-84.21,168.21
-1.2,0.23,-0.27,-4.62,-91.56,162.4
-1.22,0.18,-0.3,-17.5,-99.26,153.3
-1.15,0.15,-0.29,-23.1,-103.95,143.01
-1.11,0.11,-0.27,-32.27,-108.22,128.94
-1.06,0.1,-0.26,-40.88,-110.95,116.34
-0.99,0.14,-0.23,-50.68,-114.87,106.75
-0.94,0.11,-0.2,-61.39,-115.57,93.73
-0.83,0.09,-0.19,-71.82,-114.87,81.9
-0.75,0.07,-0.16,-79.66,-117.11,72.38
-0.64,0.01,-0.11,-81.69,-118.3,63.84
-0.47,-0.08,-0.06,-72.8,-115.36,57.68
-0.37,-0.16,0,-58.38,-107.45,51.1
-0.26,-0.15,0.05,-45.36,-94.78,46.41
-0.22,-0.09,0.07,-33.39,-82.67,42.07
-0.21,-0.01,0.04,-21.21,-71.19,37.24
-0.24,0.1,-0.12,-16.45,-62.51,30.52
-0.28,0.2,-0.04,-17.29,-57.33,20.79
-0.31,0.26,-0.05,-18.69,-52.5,7.42
-0.31,0.26,-0.02,-15.75,-46.27,-2.66
-0.31,0.23,0.02,-11.41,-35.84,-11.97
-0.31,0.22,0.06,-6.72,-26.81,-19.04
-0.34,0.22,0.09,-3.99,-17.71,-23.8
-0.4,0.22,0.16,-1.12,-10.5,-27.16
-0.45,0.21,0.18,2.17,-2.87,-30.45
-0.49,0.2,0.19,5.67,2.87,-34.51
-0.54,0.21,0.19,8.54,9.1,-37.59
-0.66,0.21,0.29,14.49,6.02,-35.91
-1.47,0.43,1,43.54,-54.11,-18.83
-1.79,0.99,1.14,72.31,-48.51,54.32
-1.5,1.58,0.1,20.3,21.21,42.28
-1.45,1.04,-0.17,-32.55,2.45,-31.43
-0.78,0.34,0.07,-30.1,7.21,-63.28
-0.32,0.15,0.04,-36.47,46.27,-79.1
-0.45,0.06,0.01,-22.89,43.19,-67.27
-0.45,-0.1,0.26,2.38,47.6,-43.26
-0.67,0,0.45,29.68,78.19,-21
-0.98,0.23,0.03,36.89,91.63,-15.54
-1.11,0.52,-0.21,22.12,75.53,-26.04
-1.09,0.36,0.01,19.53,67.55,-31.64
-1.12,0.27,0.03,29.26,85.96,-38.43
-1.12,0.23,-0.26,37.45,87.64,-46.06
-1.11,0.11,-0.26,50.89,77.7,-45.64
-1.11,0.06,-0.08,58.03,80.36,-45.08
-1.16,0.08,-0.18,65.24,86.31,-44.59
-1.16,0.14,-0.29,67.9,82.46,-44.73
-1.12,0.14,-0.27,72.03,75.32,-45.92
-1.07,0.14,-0.23,73.29,74.62,-47.6
-1.04,0.13,-0.22,72.87,73.71,-50.33
-1.02,0.09,-0.24,76.65,71.61,-50.54
-1.01,0.06,-0.24,80.71,68.25,-49.84
-1.01,0.02,-0.25,87.43,64.75,-45.01
-1,0.01,-0.25,94.78,63.14,-39.55
-1.01,-0.01,-0.26,102.48,59.85,-36.12
-1.03,-0.01,-0.31,109.13,57.19,-33.88
-1.05,-0.01,-0.34,116.27,52.64,-33.39
-1.04,-0.01,-0.41,92.47,23.03,-44.1
-1.06,-0.01,-0.41,93.59,23.31,-46.13
-1.09,0.01,-0.43,90.86,23.03,-49.28
-1.1,0.04,-0.4,86.87,23.17,-52.15
-1.11,0.08,-0.39,84.7,22.82,-53.62
-1.11,0.14,-0.38,79.31,21.56,-54.81
-1.09,0.19,-0.37,71.82,19.39,-56.7
-1.04,0.25,-0.37,61.53,17.85,-58.94
-1.01,0.3,-0.38,50.89,17.01,-63.77
-1,0.3,-0.37,45.08,13.86,-68.25
-0.96,0.29,-0.36,43.12,10.78,-72.8
-0.95,0.25,-0.35,39.27,9.1,-76.65
-0.93,0.19,-0.32,36.61,10.08,-78.26
-0.91,0.07,-0.4,42.35,10.71,-75.39
-0.84,0.12,-0.28,41.09,14.77,-76.51
-0.86,-0.09,-0.36,60.48,11.06,-72.87
-0.79,-0.1,-0.3,70.35,16.8,-70.14
-0.83,-0.07,-0.27,72.31,20.51,-69.23
-0.81,-0.06,-0.23,65.87,22.61,-66.71
-0.81,-0.04,-0.23,55.23,23.38,-65.03
-0.81,0.01,-0.25,44.59,20.93,-62.72
-0.82,0.06,-0.26,36.96,16.45,-58.66
-0.83,0.06,-0.29,38.78,16.03,-55.16
-0.83,0.1,-0.33,43.61,20.02,-53.27
-0.86,0.15,-0.36,41.79,20.51,-52.57
-0.87,0.15,-0.33,26.32,21.42,-52.99
-0.89,0.1,-0.29,23.24,24.5,-51.31
-0.93,0.09,-0.28,25.41,25.55,-46.83
-0.95,0.07,-0.32,22.54,25.34,-41.93
-0.95,0.03,-0.34,21.7,25.9,-39.69
-0.94,0.02,-0.35,22.82,23.66,-38.15
-0.91,0.01,-0.36,18.69,21.42,-36.75
-0.88,0.03,-0.37,11.48,20.23,-35.98
-0.87,0.06,-0.4,2.45,21.28,-35.49
-0.86,0.05,-0.39,-7.98,23.87,-34.58
-0.9,0.01,-0.37,-7.7,26.46,-33.81
-0.9,0,-0.35,-4.13,25.97,-31.71
-0.97,-0.03,-0.34,-5.18,21.7,-30.59
-0.96,-0.08,-0.33,-7,20.37,-31.85
-0.98,-0.12,-0.3,-6.93,16.1,-33.11
-0.98,-0.16,-0.23,-5.11,5.81,-32.2
-0.96,-0.18,-0.25,2.45,-1.54,-28.63
-0.91,-0.16,-0.3,7.84,-3.92,-26.32
-0.85,-0.12,-0.35,10.99,-3.5,-24.36
-0.82,-0.1,-0.39,14,-2.66,-22.82
-0.82,-0.1,-0.43,15.68,-3.01,-22.19
-0.83,-0.11,-0.44,15.89,-3.85,-22.12
-0.85,-0.15,-0.46,17.5,-3.08,-22.33
-0.86,-0.36,-0.47,20.23,-0.77,-23.52
-0.87,-0.3,-0.49,21.63,1.33,-26.32
-0.95,-0.28,-0.52,16.66,2.8,-29.96
-1.02,-0.26,-0.58,7.42,2.59,-33.67
-1.1,-0.26,-0.62,-1.96,0.42,-36.61
-1.15,-0.29,-0.63,-8.05,-2.24,-38.57
-1.19,-0.31,-0.6,-14.07,-5.11,-39.62
-1.22,-0.34,-0.54,-16.8,-8.19,-40.39
-1.22,-0.38,-0.48,-11.27,-9.94,-38.99
-1.26,-0.39,-0.44,-5.39,-10.01,-37.03
-1.32,-0.4,-0.46,0.56,-10.99,-33.6
-1.35,-0.4,-0.49,4.83,-13.65,-29.33
-1.36,-0.39,-0.48,6.44,-16.59,-24.71
-1.33,-0.35,-0.43,8.61,-20.86,-16.73
-1.28,-0.32,-0.34,13.93,-25.69,-7.07
-1.21,-0.28,-0.26,22.26,-31.99,4.83
-1.16,-0.23,-0.21,29.33,-35.98,16.31
-1.15,-0.17,-0.18,32.69,-38.64,25.97
-1.17,-0.09,-0.17,30.59,-40.25,34.02
-1.18,-0.01,-0.17,26.39,-39.06,41.72
-1.2,0.08,-0.18,18.62,-36.89,51.1
-1.23,0.18,-0.19,6.93,-35.21,57.12
-1.28,0.23,-0.2,-1.96,-35.98,64.26
-1.28,0.27,-0.23,-3.85,-34.72,73.01
-1.26,0.3,-0.29,8.05,-29.19,81.76
-1.3,0.28,-0.34,17.01,-29.26,84.77
-1.21,0.23,-0.38,24.29,-30.1,86.8
-1.2,0.17,-0.41,20.93,-35.14,89.32
-1.21,0.12,-0.43,7.07,-44.8,91.07
-1.17,0.03,-0.45,-9.8,-53.13,90.37
-1.15,-0.08,-0.43,-27.09,-57.12,88.48
-1.11,-0.18,-0.4,-38.99,-54.88,87.15
-1.09,-0.31,-0.37,-42.7,-49.28,90.23
-1.07,-0.4,-0.29,-35.98,-43.26,98.98
-1.06,-0.38,-0.26,-31.08,-36.05,110.67
-1.02,-0.29,-0.23,-31.36,-27.86,119.42
-1.08,-0.27,-0.17,-33.53,-27.09,122.92
-1.06,-0.22,-0.17,-33.46,-19.46,126.77
-1.06,-0.22,-0.25,-25.13,-19.81,129.92
-1.03,-0.16,-0.29,-13.23,-15.12,135.8
-1.04,-0.07,-0.27,-5.6,-15.4,142.59
-1.08,0,-0.27,-9.66,-24.43,148.33
-1.05,0.03,-0.28,-8.75,-32.55,152.25
-1.06,0.14,-0.3,-22.61,-31.99,150.43
-1.04,0.2,-0.31,-36.82,-39.2,149.45
-1.07,0.32,-0.35,-52.71,-50.33,145.32
-1.05,0.33,-0.38,-64.47,-61.11,137.2
-1.06,0.37,-0.39,-76.23,-70.07,126.49
-1.08,0.35,-0.32,-90.72,-78.26,118.37
-1.08,0.29,-0.24,-106.33,-86.24,107.66
-1.03,0.21,-0.23,-124.88,-89.81,95.41
-0.95,0.06,-0.3,-133.14,-93.31,87.92
-0.87,-0.05,-0.35,-137.06,-97.93,83.02
-0.78,-0.13,-0.33,-134.89,-101.71,78.26
-0.69,-0.2,-0.27,-130.55,-103.32,70.49
-0.58,-0.25,-0.19,-123.9,-100.94,64.89
-0.47,-0.31,-0.14,-112.77,-94.08,62.51
-0.4,-0.33,-0.11,-94.5,-83.79,63.28
-0.36,-0.34,-0.07,-79.31,-72.87,64.61
-0.35,-0.28,-0.02,-66.71,-58.38,67.62
-0.36,-0.23,-0.01,-54.32,-48.44,67.06
-0.38,-0.16,0,-42.98,-38.22,64.26
-0.42,-0.1,0,-34.72,-28.21,59.36
-0.44,-0.04,0.02,-25.62,-20.16,51.66
-0.47,0.05,0.05,-18.83,-14.28,41.93
-0.49,0.11,0.06,-15.96,-10.71,32.48
-0.5,0.15,0.09,-13.09,-8.96,22.47
-0.5,0.16,0.14,-8.33,-6.37,12.39
-0.49,0.16,0.19,-1.89,-2.8,8.26
-0.5,0.17,0.22,2.52,2.03,4.83
-0.53,0.2,0.21,6.65,5.39,2.87
-0.59,0.27,0.21,10.92,8.4,0.77
-0.68,0.35,0.18,14,9.38,-2.24
-0.72,0.41,0.14,15.33,10.08,-6.79
-0.73,0.43,0.1,16.59,10.43,-13.09
-0.72,0.41,0.07,18.34,11.97,-18.48
-0.67,0.38,0.06,21.14,14.7,-22.61
-0.64,0.35,0.06,24.15,19.25,-25.76
-0.63,0.33,0.04,26.88,24.99,-28.28
-0.63,0.32,0.01,30.03,31.43,-30.87
-0.64,0.31,0.01,33.81,37.59,-34.16
-0.65,0.29,0,36.68,44.8,-38.15
-0.68,0.28,0.01,38.22,53.48,-43.33
-0.78,0.23,0.16,43.4,53.48,-44.66
-1.05,0.39,0.4,64.96,40.74,-25.48
-1.11,0.76,0.29,61.04,67.41,-9.1
-1.36,0.89,0.06,27.37,91.49,-12.32
-1.5,0.74,-0.22,3.85,88.27,-27.51
-1.57,0.7,-0.25,19.95,68.81,-31.29
-1.57,0.73,-0.18,23.8,46.27,-34.09
-1.51,0.67,-0.01,11.2,35.07,-43.4
-1.38,0.51,0.03,-7.91,34.44,-60.34
-1.04,0.32,-0.2,-24.36,39.69,-69.65
-0.77,0.03,-0.22,-21,54.67,-74.62
-0.64,-0.14,-0.37,4.06,65.59,-76.44
-0.56,-0.16,-0.45,27.93,79.31,-72.8
-0.69,-0.07,-0.47,53.2,83.16,-60.34
-0.87,0.11,-0.45,72.38,84.35,-43.82
-1.04,0.23,-0.4,76.09,87.01,-29.82
-1.16,0.25,-0.38,72.52,85.19,-23.45
-1.2,0.24,-0.41,66.5,79.31,-26.32
-1.16,0.16,-0.41,67.83,73.92,-33.6
-1.13,0.12,-0.37,72.24,68.04,-40.67
-1.13,0.09,-0.32,75.81,63.28,-44.87
-1.12,0.09,-0.28,78.96,56.84,-46.06
-1.1,0.07,-0.27,85.33,49.28,-44.38
-1.06,0.05,-0.29,95.62,43.54,-41.93
-1.02,0.03,-0.33,110.81,38.92,-37.45
-0.99,0.02,-0.38,123.55,35.98,-35.07
-0.98,0.01,-0.43,129.85,34.09,-35.07
-0.99,0.04,-0.43,124.74,32.48,-39.41
-1,0.04,-0.41,107.94,29.05,-44.8
-1.02,0.03,-0.4,97.23,26.46,-49.14
-1.04,0.05,-0.42,91.84,24.36,-51.03
-1.04,0.1,-0.41,91.56,23.59,-52.5
-1.06,0.13,-0.44,90.3,22.89,-53.76
-1.03,0.16,-0.44,88.97,22.33,-55.16
-0.98,0.19,-0.45,87.5,20.93,-56
-0.94,0.2,-0.45,84.63,20.3,-57.4
-0.93,0.2,-0.41,82.6,18.41,-60.55
-0.9,0.16,-0.4,84,18.2,-62.72
-0.89,0.12,-0.38,87.5,18.76,-62.65
-0.89,0.04,-0.33,94.36,21.28,-60.83
-0.88,0.09,-0.29,97.79,19.81,-59.43
-0.93,0.03,-0.26,87.43,15.33,-59.85
-0.88,-0.04,-0.25,89.81,16.03,-57.33
-0.84,-0.04,-0.26,88.9,18.2,-53.9
-0.82,-0.11,-0.26,92.96,22.12,-49.07
-0.79,-0.1,-0.28,93.38,24.85,-45.5
-0.76,-0.11,-0.31,87.36,24.29,-41.93
-0.74,-0.09,-0.38,80.78,23.24,-38.36
-0.73,-0.09,-0.39,80.78,24.43,-34.51
-0.73,-0.05,-0.43,83.09,26.88,-29.68
-0.76,-0.02,-0.45,85.12,28.77,-25.34
-0.78,0.02,-0.46,82.6,28.14,-21.21
-0.8,0.05,-0.48,78.12,25.34,-20.02
-0.83,0.05,-0.46,74.83,23.52,-19.11
-0.85,0.06,-0.46,74.9,24.22,-18.41
-0.87,0.06,-0.46,73.92,23.8,-16.94
-0.88,0.06,-0.44,71.33,22.12,-15.47
-0.89,0.04,-0.43,67.62,20.86,-14.49
-0.9,0,-0.43,65.38,20.16,-13.72
-0.9,-0.04,-0.42,64.68,22.05,-12.32
-0.9,-0.05,-0.45,64.05,20.44,-11.13
-0.88,-0.08,-0.47,60.27,19.95,-10.71
-0.86,-0.11,-0.47,59.08,22.33,-9.8
-0.86,-0.11,-0.44,54.81,22.89,-9.03
-0.88,-0.13,-0.44,49.91,21.56,-12.32
-0.89,-0.16,-0.44,47.25,20.23,-15.33
-0.9,-0.18,-0.41,46.06,20.23,-17.71
-0.89,-0.2,-0.38,45.36,19.74,-19.74
-0.88,-0.23,-0.35,45.01,18.76,-21.49
-0.87,-0.26,-0.32,45.5,17.71,-22.61
-0.85,-0.3,-0.32,47.11,16.52,-23.66
-0.8,-0.26,-0.34,46.9,15.75,-21.77
-0.88,-0.25,-0.37,50.4,15.75,-24.99
-0.85,-0.24,-0.41,44.1,17.5,-29.61
-0.86,-0.21,-0.4,40.88,16.17,-32.34
-0.88,-0.19,-0.42,39.34,17.01,-35.07
-0.93,-0.17,-0.46,36.26,16.94,-38.43
-0.95,-0.14,-0.47,34.37,16.38,-41.58
-0.94,-0.08,-0.49,34.58,14.84,-41.93
-0.92,-0.08,-0.5,36.47,13.72,-40.46
-0.95,-0.08,-0.51,38.22,13.72,-38.5
-0.98,-0.09,-0.49,39.69,13.37,-34.86
-1,-0.07,-0.45,39.83,13.3,-28.28
-1.01,-0.06,-0.39,42.77,13.86,-19.25
-1.01,-0.06,-0.37,49.98,13.72,-5.39
-1.02,-0.08,-0.37,58.52,13.93,6.16
-1.03,-0.1,-0.37,64.54,15.19,15.19
-1.09,-0.08,-0.38,65.87,13.65,21.56
-1.15,0,-0.43,62.44,9.45,27.3
-1.18,0.09,-0.46,53.48,4.41,34.02
-1.16,0.14,-0.42,42.77,-0.98,40.46
-1.13,0.17,-0.32,34.72,-3.78,49.63
-1.09,0.17,-0.2,32.62,-5.04,59.08
-1.08,0.17,-0.15,30.94,-7.42,69.02
-1.15,0.11,-0.18,29.26,-12.81,76.65
-1.22,0.04,-0.21,32.2,-22.68,83.79
-1.26,-0.03,-0.25,34.93,-31.57,90.65
-1.3,-0.09,-0.22,36.54,-39.13,99.54
-1.3,-0.15,-0.17,37.24,-42.63,104.79
-1.26,-0.22,-0.13,39.76,-43.68,109.83
-1.2,-0.3,-0.16,41.58,-45.78,115.08
-1.15,-0.39,-0.26,37.94,-49.14,119.98
-1.08,-0.52,-0.34,36.68,-45.99,124.81
-1.05,-0.62,-0.38,39.62,-39.62,132.93
-1.08,-0.71,-0.38,40.81,-37.31,141.26
-1.12,-0.77,-0.35,39.9,-35.84,143.85
-1.08,-0.81,-0.34,41.58,-30.45,144.2
-1.04,-0.81,-0.29,44.24,-22.47,145.39
-1.05,-0.75,-0.26,44.8,-16.66,144.69
-1.09,-0.7,-0.22,47.32,-14.56,142.73
-1.11,-0.7,-0.2,55.58,-15.96,134.61
-1.13,-0.68,-0.21,64.05,-17.92,124.39
-1.14,-0.53,-0.26,66.57,-20.72,119.91
-1.12,-0.48,-0.23,57.82,-25.76,115.64
-1.11,-0.47,-0.19,49.84,-30.94,111.65
-0.99,-0.42,-0.15,47.04,-33.81,107.45
-0.94,-0.42,-0.15,52.29,-37.03,106.19
-0.91,-0.4,-0.19,50.12,-42.56,103.18
-0.83,-0.47,-0.24,45.78,-44.38,95.06
-0.75,-0.46,-0.28,36.89,-42.35,89.95
-0.71,-0.49,-0.29,45.29,-43.26,87.78
-0.69,-0.51,-0.27,63.42,-44.45,83.86
-0.66,-0.4,-0.34,58.52,-42.35,79.45
-0.61,-0.29,-0.39,43.54,-33.04,74.97
-0.63,-0.28,-0.39,40.46,-28.28,67.55
-0.64,-0.23,-0.37,46.97,-27.79,62.16
-0.68,-0.18,-0.35,51.31,-32.41,57.26
-0.6,-0.16,-0.31,56.7,-30.03,50.26
-0.56,-0.18,-0.31,58.87,-25.41,41.72
-0.56,-0.2,-0.31,57.26,-21.63,31.64
-0.54,-0.23,-0.3,55.86,-18.97,21.7
-0.48,-0.24,-0.3,59.15,-14.77,8.89
-0.46,-0.22,-0.31,61.95,-6.51,0.98
-0.48,-0.21,-0.3,65.94,2.8,-6.16
-0.51,-0.21,-0.31,88.76,10.15,-10.85
-0.58,-0.11,-0.29,73.22,14.7,-9.87
-0.64,-0.04,-0.3,71.12,16.66,-8.47
-0.69,0.01,-0.31,71.47,17.01,-6.3
-0.77,0.1,-0.32,70.77,17.01,-0.42
-0.8,0.18,-0.33,70.49,21.07,5.74
-0.85,0.26,-0.36,70.63,28,12.25
-0.89,0.34,-0.38,67.83,36.82,20.72
-0.94,0.43,-0.39,64.47,43.75,28.98
-0.9,0.54,-0.39,62.79,52.99,38.99
-1.02,0.66,-0.34,61.46,50.89,55.37
-1.07,0.82,-0.26,65.17,50.26,63
-1.21,0.85,-0.13,67.27,46.9,62.93
-1.33,0.68,0,66.01,38.92,48.93
-1.46,0.52,0.07,57.68,20.65,24.29
-1.51,0.46,0.24,52.85,-9.31,3.08
-1.47,0.49,0.24,45.29,-29.05,-6.16
-1.4,0.53,0.32,41.37,-32.27,-0.28
-1.31,0.48,0.24,38.36,-24.71,4.76
-1.21,0.39,0.06,38.64,-16.38,6.09
-1.11,0.24,-0.04,40.6,-14,3.29
-1.02,0.07,-0.11,47.88,-9.31,-3.29
-0.95,-0.08,-0.19,48.72,-6.16,-13.37
-0.87,-0.23,-0.28,43.75,-1.12,-24.43
-0.8,-0.36,-0.32,43.61,12.6,-22.47
-0.84,-0.4,-0.35,50.54,29.19,-8.89
-0.92,-0.34,-0.4,62.44,34.16,9.8
-1,-0.21,-0.43,80.43,38.08,23.31
-1.24,-0.12,-0.41,88.9,31.08,28.77
-1.4,-0.03,-0.36,89.53,24.01,31.92
-1.55,-0.01,-0.36,90.72,20.58,36.05
-1.55,0.01,-0.29,99.33,17.01,39.97
-1.35,0.02,-0.21,116.06,9.8,45.15
-0.92,0.03,-0.19,130.2,2.17,49.84
-0.51,0,-0.27,125.58,-3.99,48.58
-0.28,-0.05,-0.66,115.78,-0.77,40.81
-0.23,-0.28,-0.78,108.15,2.24,32.41
-0.26,-0.36,-0.81,104.51,13.79,22.96
-0.43,-0.36,-0.88,93.45,21.91,11.55
-0.69,-0.33,-0.88,81.27,27.02,5.39
-0.86,-0.29,-0.83,68.88,23.66,2.17
-0.98,-0.23,-0.77,58.52,17.15,-0.49
-1.03,-0.17,-0.7,54.53,13.23,-2.03
-1.01,-0.11,-0.58,58.03,12.95,-3.36
-0.98,-0.05,-0.51,63.91,16.03,-3.36
-0.95,-0.03,-0.49,71.82,35.7,-1.96
-0.91,-0.04,-0.43,77.35,18.9,-1.54
-0.88,-0.1,-0.44,85.89,18.48,-0.14
-0.86,-0.16,-0.49,92.54,17.71,2.1
-0.83,-0.24,-0.49,106.33,19.18,5.67
-0.83,-0.3,-0.51,119.84,19.39,11.62
-0.82,-0.31,-0.51,129.92,19.88,16.03
-0.82,-0.29,-0.55,133.63,20.86,18.34
-0.8,-0.24,-0.59,129.22,19.04,18.83
-0.78,-0.19,-0.57,122.71,20.09,17.36
-0.78,-0.19,-0.52,119.98,20.58,15.96
-0.81,-0.16,-0.47,119.07,19.32,14.63
-0.86,-0.1,-0.49,115.57,17.43,11.13
-0.85,-0.06,-0.51,115.71,16.45,11.48
-0.89,0,-0.5,119.56,17.78,12.53
-0.91,0.02,-0.48,122.01,17.08,14.14
-0.93,0.07,-0.49,120.68,15.05,15.54
-0.9,0.11,-0.52,117.81,9.73,16.8
-1.04,0.21,-0.45,112.91,7.35,18.13
-0.94,0.17,-0.41,110.04,8.89,19.39
-0.94,0.16,-0.44,99.96,7.21,19.04
-0.93,0.14,-0.39,90.09,7.91,16.38
-0.91,0.12,-0.38,80.22,6.23,13.09
-0.9,0.04,-0.34,77.14,7.28,10.22
-0.91,0.04,-0.35,74.2,7.49,8.33
-0.9,-0.01,-0.33,72.66,8.89,6.51
-0.91,-0.04,-0.33,68.25,8.19,1.4
-0.91,-0.06,-0.35,60.76,7.07,-5.32
-0.92,-0.06,-0.37,53.2,5.67,-11.34
-0.92,-0.05,-0.37,47.74,4.41,-16.17
-0.9,-0.02,-0.38,44.87,3.29,-18.62
-0.89,0.01,-0.4,44.1,2.52,-18.62
-0.89,0.02,-0.41,45.29,1.82,-16.52
-0.89,0.03,-0.43,47.46,1.61,-13.58
-0.9,0.03,-0.44,52.22,1.89,-8.75
-0.92,0.03,-0.43,59.57,1.89,-3.01
-0.94,0.02,-0.41,70.98,1.54,4.34
-0.96,0.02,-0.37,80.92,0.56,11.27
-0.97,0.04,-0.33,88.27,-3.01,17.22
-0.98,0.09,-0.29,93.87,-9.1,22.12
-0.99,0.13,-0.25,95.41,-16.03,26.32
-1,0.17,-0.21,93.52,-25.69,31.08
-1.01,0.21,-0.17,87.85,-32.97,36.75
-1.06,0.23,-0.14,81.97,-35.98,46.13
-1.18,0.26,-0.14,74.34,-35.49,59.5
-1.45,0.22,-0.16,64.89,-35.77,75.81
-1.75,0.14,-0.14,60.62,-40.25,98.63
-1.96,0.05,-0.05,61.46,-49.21,117.25
-1.98,-0.03,0.14,56.21,-57.96,130.27
-1.84,-0.11,0.19,64.05,-74.48,140.28
-1.74,-0.15,0.22,79.38,-91.98,150.15
-1.64,-0.22,0,85.61,-101.29,157.5
-1.52,-0.28,-0.26,80.85,-100.59,156.1
-1.47,-0.41,-0.5,68.67,-92.19,144.83
-1.36,-0.62,-0.74,55.72,-83.44,138.18
-1.21,-0.74,-0.84,67.9,-66.64,145.39
-1.15,-0.61,-0.86,78.05,-49.14,157.64
-1.2,-0.38,-0.74,61.04,-41.09,157.85
-1.21,-0.38,-0.5,66.64,-43.61,157.36
-1.22,-0.28,-0.34,77.21,-47.46,153.72
-1.26,-0.19,-0.16,78.33,-48.79,155.61
-1.45,0.04,0.07,79.94,-68.32,165.83
-1.3,0.13,0,48.86,-70.42,168.84
-1.27,0.18,-0.15,32.06,-62.58,170.45
-1.2,0.2,-0.38,10.99,-58.94,168.35
-1.16,0.16,-0.49,-2.1,-63.49,163.38
-1.17,0.11,-0.4,-7,-85.96,155.61
-1.13,0.14,-0.31,-18.9,-101.43,141.61
-1.05,0.23,-0.25,-24.29,-100.59,133.35
-0.99,0.31,-0.13,-47.46,-101.71,124.88
-1,0.34,-0.09,-77,-107.87,111.44
-0.93,0.23,-0.19,-95.2,-115.01,95.2
-0.83,0.07,-0.22,-105.21,-125.93,74.62
-0.71,-0.16,-0.26,-100.87,-124.32,63.63
-0.54,-0.28,-0.21,-90.09,-121.59,56.07
-0.43,-0.3,-0.15,-76.09,-114.52,50.68
-0.32,-0.28,-0.07,-56.35,-104.51,47.88
-0.24,-0.21,0,-42.91,-90.93,47.81
-0.23,-0.13,0.01,-31.64,-76.44,46.41
-0.25,0,0.04,-22.26,-64.82,44.66
-0.31,0.08,0.01,-15.89,-36.75,43.68
-0.37,0.17,0,-11.55,-43.68,40.11
-0.41,0.25,0.02,-7.91,-37.94,35.77
-0.43,0.3,0.02,-8.12,-33.32,31.5
-0.44,0.35,0.04,-6.16,-30.52,26.67
-0.46,0.39,0.09,-3.29,-27.23,20.65
-0.49,0.44,0.14,-4.2,-24.08,10.57
-0.52,0.44,0.16,-6.65,-20.44,1.96
-0.55,0.41,0.18,-8.12,-18.27,-6.16
-0.54,0.36,0.19,-9.24,-15.05,-14.35
-0.51,0.32,0.18,-9.38,-10.22,-21.49
-0.47,0.28,0.2,-7.28,-4.2,-28.28
-0.46,0.25,0.22,-3.85,1.26,-35.77
-0.43,0.22,0.19,1.61,8.89,-41.3
-0.42,0.2,0.17,7.07,19.95,-46.41
-0.69,0.24,0.41,21.28,6.79,-38.57
-1.43,0.59,1.04,68.25,-28.35,-6.44
-1.76,1.18,0.98,80.15,9.31,40.95
-1.81,1.37,0.18,2.87,44.8,6.23
-1.67,0.49,-0.1,-35.91,24.43,-45.5
-1.17,0.2,-0.12,-40.32,10.64,-64.4
-0.58,-0.11,-0.18,-41.93,9.1,-64.75
-0.33,-0.24,0.33,-3.29,22.89,-52.36
-0.58,0.05,0.47,22.61,58.45,-39.69
-0.91,0.39,0.06,48.86,73.22,-40.81
-0.98,0.44,-0.1,47.11,69.44,-45.92
-0.93,-0.03,-0.03,34.16,68.53,-41.09
-0.94,-0.07,-0.21,50.33,73.99,-38.78
-1.13,0.09,-0.33,77.7,76.86,-41.72
-1.22,0.19,-0.31,84.7,73.71,-46.48
-1.18,0.12,-0.23,79.66,72.38,-49.28
-1.05,0.06,-0.3,78.75,77.63,-50.82
-0.96,0.03,-0.31,90.58,82.46,-48.51
-0.91,0.16,-0.32,99.05,87.36,-50.19
-0.94,0.22,-0.36,98.35,85.33,-51.17
-0.96,0.21,-0.35,93.59,83.16,-50.05
-0.98,0.17,-0.33,91.98,79.31,-48.09
-0.98,0.13,-0.35,90.86,75.67,-44.87
-1,0.08,-0.37,95.69,69.65,-41.09
-1.04,-0.01,-0.38,110.25,62.51,-35.14
-1.08,-0.05,-0.39,125.72,55.37,-30.94
-1.15,-0.05,-0.41,136.78,42.49,-28.56
-1.17,-0.03,-0.43,140.77,32.62,-28.42
-1.18,0,-0.46,134.54,25.41,-31.64
-1.18,0.03,-0.44,130.27,23.73,-35.91
-1.18,0.08,-0.45,122.43,21.98,-41.72
-1.18,0.12,-0.43,115.08,18.97,-49.35
-1.18,0.18,-0.43,106.68,14.98,-54.95
-1.14,0.22,-0.44,97.79,11.76,-59.29
-1.1,0.28,-0.43,84.98,11.97,-64.12
-1.06,0.33,-0.46,72.38,11.48,-67.9
-1.02,0.35,-0.45,59.36,12.04,-72.8
-0.98,0.32,-0.43,50.33,11.83,-77.91
-0.92,0.22,-0.38,45.01,11.62,-81.76
-0.87,0.12,-0.35,55.09,16.8,-80.71
-0.87,0.07,-0.29,59.57,19.88,-79.52
-0.87,0.03,-0.29,70.84,22.89,-76.09
-0.84,0.01,-0.33,71.12,26.53,-74.48
-0.82,-0.02,-0.3,71.26,32.2,-70.98
-0.82,-0.01,-0.3,65.66,31.36,-71.05
-0.79,-0.09,-0.44,66.15,29.89,-65.03
-0.7,-0.17,-0.44,72.38,30.87,-58.38
-0.72,-0.1,-0.38,73.08,29.89,-53.13
-0.77,-0.03,-0.28,63.07,33.81,-49.56
-0.83,0.02,-0.18,49.14,39.76,-47.18
-0.86,0.01,-0.19,44.38,41.72,-45.22
-0.92,0.03,-0.2,45.78,40.32,-41.93
-0.95,0.07,-0.23,49.14,37.31,-39.13
-0.98,0.1,-0.27,50.47,32.76,-37.1
-0.98,0.12,-0.3,49,28.91,-37.31
-0.96,0.14,-0.35,42.35,25.69,-38.99
-0.94,0.19,-0.35,30.73,25.27,-40.6
-0.92,0.18,-0.35,20.79,24.29,-41.23
-0.9,0.14,-0.36,13.79,22.05,-40.88
-0.9,0.13,-0.37,5.74,19.74,-40.53
-0.94,0.14,-0.37,-0.42,19.39,-38.99
-0.93,0.06,-0.36,-5.46,22.68,-42
-0.94,0.02,-0.34,-9.1,24.15,-43.82
-0.94,-0.01,-0.31,-7.28,24.78,-43.4
-0.94,-0.04,-0.3,-2.17,23.24,-42.84
-0.94,-0.07,-0.28,2.59,18.9,-42.77
-0.94,-0.09,-0.28,6.86,12.67,-41.37
-0.94,-0.12,-0.31,11.34,7.7,-38.43
-0.94,-0.14,-0.35,18.06,3.92,-34.51
-0.94,-0.15,-0.4,21.35,1.82,-31.08
-0.94,-0.16,-0.45,21.91,0.91,-28.7
-0.94,-0.17,-0.47,19.81,0.35,-26.74
-0.97,-0.14,-0.51,14.49,-0.42,-27.51
-1,-0.13,-0.55,8.47,-0.63,-28.56
-1.02,-0.18,-0.59,3.29,0.07,-29.96
-1.02,-0.23,-0.61,3.92,0.28,-30.52
-1.02,-0.28,-0.62,3.85,1.12,-31.36
-1.02,-0.31,-0.6,0.63,0.98,-33.46
-1.04,-0.31,-0.55,-5.39,0.14,-37.59
-1.08,-0.29,-0.5,-11.55,-1.82,-38.78
-1.19,-0.27,-0.46,-14.28,-4.13,-37.94
-1.27,-0.25,-0.44,-13.44,-8.05,-36.05
-1.34,-0.26,-0.43,-12.04,-12.11,-32.76
-1.38,-0.25,-0.44,-8.68,-16.87,-27.72
-1.38,-0.24,-0.42,-5.11,-21.14,-18.69
-1.36,-0.19,-0.37,-1.47,-26.46,-9.03
-1.34,-0.16,-0.31,2.87,-35.77,1.82
-1.32,-0.12,-0.23,6.93,-45.15,14.14
-1.32,-0.08,-0.15,8.75,-53.2,26.53
-1.34,-0.04,-0.1,7.42,-57.75,38.29
-1.37,0.05,-0.09,1.61,-58.17,48.86
-1.39,0.19,-0.13,-7.7,-56.35,59.57
-1.38,0.28,-0.18,-14.91,-51.87,69.37
-1.39,0.32,-0.22,-13.72,-49.77,81.97
-1.39,0.32,-0.24,3.43,-53.83,95.55
-1.32,0.32,-0.33,15.19,-57.4,109.34
-1.28,0.26,-0.45,22.4,-59.85,121.31
-1.25,0.17,-0.52,23.38,-66.43,128.94
-1.24,0.04,-0.63,13.58,-73.78,130.41
-1.2,-0.08,-0.73,-6.65,-64.68,126.77
-1.34,-0.23,-0.67,-16.94,-63.35,119.07
-1.37,-0.34,-0.62,-16.66,-64.19,109.41
-1.35,-0.36,-0.44,-23.73,-54.04,105.42
-1.21,-0.37,-0.41,-31.99,-49.98,113.26
-1.06,-0.4,-0.28,-26.32,-37.38,130.27
-1.08,-0.4,-0.19,-29.68,-15.96,137.48
-1.04,-0.35,-0.12,-38.78,-4.48,140.35
-0.98,-0.3,-0.11,-44.03,0.49,143.71
-0.97,-0.21,-0.24,-48.16,-3.01,150.15
-0.93,-0.21,-0.42,-43.54,-5.74,157.64
-0.87,0.05,-0.6,-48.93,-7.21,155.19
-0.95,0.27,-0.62,-53.34,-24.99,151.62
-1,0.36,-0.56,-48.44,-46.9,145.74
-1,0.43,-0.43,-50.68,-62.23,132.51
-0.99,0.47,-0.35,-80.92,-66.99,119.49
-0.97,0.44,-0.19,-109.06,-66.36,108.22
-0.91,0.32,-0.22,-137.55,-71.19,96.46
-0.84,0.19,-0.33,-160.65,-78.61,83.58
-0.75,0.03,-0.4,-172.41,-84.91,73.01
-0.69,-0.06,-0.39,-174.86,-95.06,67.62
-0.64,-0.17,-0.31,-173.88,-99.47,59.92
-0.57,-0.27,-0.26,-169.75,-98.42,51.73
-0.47,-0.37,-0.23,-162.26,-97.02,42.77
-0.26,-0.51,-0.18,-143.71,-84.98,36.68
-0.26,-0.55,-0.11,-124.18,-75.88,31.22
-0.19,-0.53,-0.07,-103.88,-63.91,30.31
-0.18,-0.43,-0.04,-86.31,-48.79,29.47
-0.2,-0.34,-0.04,-71.54,-37.31,30.66
-0.22,-0.22,-0.04,-56.63,-24.99,31.57
-0.25,-0.12,-0.05,-44.24,-13.09,32.62
-0.3,-0.01,-0.04,-30.87,-2.73,32.06
-0.36,0.09,-0.02,-20.16,6.02,29.61
-0.43,0.19,-0.01,-13.58,12.46,24.57
-0.5,0.24,0.03,-8.61,16.1,17.15
-0.55,0.26,0.1,-6.44,18.34,8.33
-0.58,0.25,0.15,-6.86,21.42,-0.98
-0.61,0.25,0.14,-6.02,25.13,-10.08
-0.63,0.22,0.13,-3.78,28.98,-18.97
-0.66,0.15,0.16,3.08,31.01,-28.28
-0.79,0.16,0.37,20.72,21.77,-25.13
-0.99,0.47,0.51,43.33,32.48,-10.78
-1.09,0.69,0.37,34.79,63.84,-13.44
-1.16,0.57,0.04,-3.29,74.9,-42.77
-1.12,0.24,-0.23,-16.03,69.72,-59.15
-1.05,0.05,-0.17,-1.33,61.81,-52.08
-1.13,0.08,0.17,15.82,66.78,-33.46
-1.41,0.46,0.17,18.41,69.37,-26.67
-1.59,0.72,-0.2,24.08,47.74,-35.63
-1.45,0.55,-0.21,3.01,24.22,-45.08
-1.26,0.16,-0.01,-9.59,36.26,-50.54
-1.16,-0.01,-0.23,0.49,47.04,-58.8
-1.03,-0.08,-0.36,22.75,52.5,-70.56
-0.99,-0.07,-0.3,43.05,55.86,-71.12
-1.03,0.02,-0.23,49.91,62.44,-67.06
-1.03,0.11,-0.29,50.68,62.23,-62.58
-1.03,0.13,-0.33,54.11,59.5,-57.12
-1.02,0.11,-0.33,56.98,57.12,-54.6
-1.03,0.08,-0.36,59.78,56,-55.37
-1.03,0.03,-0.39,64.19,54.11,-56.42
-1,0.01,-0.41,73.01,50.89,-52.85
-0.98,0.02,-0.43,84.63,44.8,-48.16
-0.97,0.03,-0.43,98.07,37.31,-43.26
-0.96,0.07,-0.44,102.34,30.8,-39.48
-0.96,0.11,-0.48,100.17,27.02,-37.94
-0.94,0.13,-0.5,95.9,26.81,-37.73
-0.95,0.14,-0.49,90.86,29.54,-37.8
-1.11,0.16,-0.49,84,32.34,-40.04
-1.06,0.16,-0.48,83.93,29.54,-42.14
-1.06,0.2,-0.46,83.16,27.16,-43.89
-1.04,0.23,-0.44,79.03,25.62,-45.36
-1.02,0.3,-0.43,67.69,24.43,-48.93
-0.99,0.32,-0.42,58.1,23.45,-54.95
-0.94,0.35,-0.42,44.8,22.96,-61.04
-0.93,0.34,-0.43,31.71,22.54,-67.41
-0.94,0.29,-0.38,23.52,22.19,-73.64
-0.96,0.23,-0.33,23.03,20.02,-77.77
-0.98,0.19,-0.18,24.08,19.6,-80.99
-1,0.02,-0.13,35.49,20.02,-80.43
-0.98,0.01,-0.05,47.32,20.58,-75.46
-0.97,-0.09,-0.07,52.64,20.44,-72.8
-0.91,-0.16,-0.15,63.56,18.34,-69.44
-0.82,-0.14,-0.25,71.89,20.93,-65.8
-0.79,-0.16,-0.34,70.77,22.33,-61.11
-0.72,-0.19,-0.39,61.11,18.76,-60.69
-0.68,-0.16,-0.34,43.12,17.99,-59.85
-0.74,-0.09,-0.23,36.47,24.78,-54.6
-0.81,0.01,-0.14,36.26,33.11,-50.19
-0.9,0.08,-0.16,37.59,34.09,-45.64
-0.95,0.14,-0.22,39.34,30.87,-42.56
-0.98,0.21,-0.24,34.79,26.53,-42.77
-0.97,0.22,-0.3,24.78,24.71,-43.54
-0.94,0.19,-0.33,15.33,25.41,-44.24
-0.97,0.19,-0.35,10.01,25.76,-44.94
-0.95,0.12,-0.35,4.62,25.2,-48.79
-0.92,0.08,-0.35,-0.84,24.78,-49.49
-0.87,0.04,-0.34,-12.04,26.74,-48.02
-0.88,-0.01,-0.33,-13.93,28.56,-45.85
-0.9,-0.05,-0.33,-13.79,30.03,-45.36
-0.91,-0.08,-0.34,-11.69,28.91,-44.31
-0.94,-0.08,-0.32,-13.23,25.9,-43.96
-0.97,-0.08,-0.28,-12.74,20.86,-44.38
-0.98,-0.06,-0.25,-8.47,12.67,-43.47
-0.96,-0.02,-0.23,-4.2,4.13,-41.51
-0.93,0,-0.26,-0.63,0.07,-39.76
-0.89,0,-0.31,1.47,-1.61,-39.55
-0.86,-0.03,-0.36,3.08,-1.4,-38.92
-0.84,-0.12,-0.42,7.63,1.26,-36.96
-0.85,-0.21,-0.45,12.04,3.29,-36.26
-0.88,-0.27,-0.5,10.64,4.27,-37.24
-0.94,-0.24,-0.52,4.41,4.27,-38.08
-1.02,-0.21,-0.58,-0.98,1.75,-39.06
-1.1,-0.17,-0.62,-6.23,-1.33,-38.99
-1.18,-0.17,-0.65,-10.5,-4.48,-38.08
-1.22,-0.2,-0.66,-14.07,-7.77,-37.45
-1.25,-0.27,-0.63,-16.52,-7.98,-35.84
-1.33,-0.32,-0.5,-15.61,-7.07,-31.99
-1.47,-0.34,-0.4,-10.85,-10.85,-24.92
-1.6,-0.32,-0.35,-0.35,-20.58,-14.91
-1.69,-0.26,-0.29,7.07,-32.9,-1.12
-1.75,-0.23,-0.16,12.6,-47.39,12.11
-1.68,-0.16,-0.05,18.27,-60.62,27.86
-1.56,-0.07,-0.03,20.44,-61.11,44.24
-1.46,0.01,-0.07,25.97,-57.61,60.41
-1.37,0.08,-0.15,30.17,-54.46,73.64
-1.31,0.12,-0.22,28.21,-54.25,82.39
-1.27,0.12,-0.26,24.15,-54.53,88.83
-1.26,0.12,-0.28,26.18,-54.32,92.82
-1.26,0.14,-0.31,23.66,-55.65,95.34
-1.27,0.18,-0.31,10.29,-55.02,97.3
-1.3,0.24,-0.35,-2.73,-53.97,100.45
-1.3,0.23,-0.42,-6.44,-51.38,104.09
-1.3,0.2,-0.45,0.07,-48.86,110.81
-1.27,0.17,-0.52,0,-49.7,115.5
-1.16,0.06,-0.5,0.28,-44.8,120.19
-1.21,-0.04,-0.49,-10.43,-47.53,118.09
-1.18,-0.19,-0.38,-22.82,-50.4,113.12
-1.11,-0.34,-0.34,-26.67,-48.23,110.39
-1.02,-0.47,-0.36,-29.75,-46.13,113.96
-0.95,-0.52,-0.33,-30.94,-34.44,124.46
-1.01,-0.42,-0.33,-24.57,-26.53,130.34
-1,-0.27,-0.28,-23.66,-20.51,131.74
-1.01,-0.13,-0.22,-29.12,-15.96,132.86
-1.03,-0.06,-0.14,-27.51,-10.78,136.01
-1.01,0.02,-0.19,-21.98,-3.01,140.56
-0.97,0.09,-0.27,-38.15,0.91,138.6
-0.96,0.09,-0.37,-56.07,-3.57,135.17
-0.95,0.18,-0.47,-68.95,-34.86,127.4
-0.93,0.23,-0.5,-76.09,-43.4,119.56
-0.91,0.27,-0.45,-77.91,-55.09,112.07
-0.9,0.32,-0.37,-85.89,-62.44,104.72
-0.89,0.34,-0.2,-99.05,-63.42,95.41
-0.88,0.3,-0.16,-115.99,-60.9,81.97
-0.84,0.16,-0.2,-130.9,-65.66,72.03
-0.74,0.08,-0.25,-144.62,-69.3,65.1
-0.67,-0.01,-0.28,-147.28,-71.54,62.44
-0.65,-0.11,-0.25,-143.36,-75.81,60.97
-0.63,-0.18,-0.22,-139.65,-78.82,57.89
-0.56,-0.22,-0.18,-133.84,-77.14,53.9
-0.51,-0.27,-0.14,-124.46,-75.46,50.4
-0.44,-0.32,-0.1,-110.53,-68.95,50.68
-0.36,-0.33,-0.06,-93.94,-57.96,52.43
-0.34,-0.31,-0.02,-76.51,-49.7,52.85
-0.33,-0.25,0.02,-59.43,-40.11,51.45
-0.35,-0.15,0.05,-49.98,-29.33,48.02
-0.38,-0.05,0.04,-44.73,-18.69,43.61
-0.39,0.07,0.01,-41.23,-10.43,33.95
-0.41,0.16,-0.01,-39.62,-5.04,24.99
-0.43,0.2,-0.01,-34.51,-1.19,16.87
-0.46,0.22,0.02,-26.46,3.22,9.03
-0.5,0.24,0.04,-22.75,7.07,1.19
-0.51,0.23,0.09,-19.53,10.08,-6.3
-0.53,0.2,0.12,-15.54,13.58,-14.42
-0.54,0.16,0.15,-9.31,17.78,-19.25
-0.55,0.13,0.17,-2.87,24.36,-23.1
-0.57,0.1,0.17,4.48,30.38,-26.88
-0.61,0.1,0.16,14.63,37.03,-29.47
-0.65,0.09,0.15,23.66,42.07,-32.9
-0.82,0.07,0.36,40.53,37.38,-32.76
-1.08,0.27,0.55,66.71,28.7,-11.9
-1.3,0.86,0.55,74.13,46.55,4.55
-1.5,1.16,0.1,33.11,81.34,-6.58
-1.63,0.94,-0.33,-13.44,70.28,-27.93
-1.49,0.7,-0.36,-11.97,53.34,-38.92
-1.37,0.41,-0.09,-11.06,36.96,-45.22
-1.23,0.25,0.08,-16.38,29.89,-49.07
-0.96,0.33,0.02,-26.39,24.78,-61.32
-0.7,0.16,-0.02,-32.83,39.83,-73.36
-0.68,-0.03,-0.01,-16.38,55.16,-74.76
-0.79,-0.04,-0.14,14.07,65.66,-67.55
-0.96,0.06,-0.35,38.29,68.6,-54.39
-1.11,0.18,-0.38,52.92,67.06,-42.91
-1.22,0.25,-0.28,51.66,66.36,-41.44
-1.25,0.22,-0.27,40.81,65.59,-48.44
-1.18,0.14,-0.37,37.31,60.83,-53.48
-1.07,0.09,-0.4,44.45,57.96,-54.04
-1.01,0.06,-0.37,55.16,58.1,-54.32
-0.98,0.06,-0.35,61.95,58.52,-51.52
-0.96,0.05,-0.32,71.61,60.48,-47.67
-0.98,0.05,-0.33,82.11,56.84,-42.63
-0.98,0.05,-0.34,89.95,50.33,-40.18
-1.02,0.07,-0.34,95.55,40.39,-40.11
-1.05,0.08,-0.34,97.51,31.71,-41.86
-1.09,0.08,-0.36,97.09,27.23,-44.31
-1.15,0.08,-0.39,94.78,24.99,-48.16
-1.17,0.06,-0.41,93.38,21.77,-50.75
-1.18,0.04,-0.43,92.68,17.43,-53.9
-1.18,0.05,-0.44,91.7,12.95,-56.21
-1.13,0.07,-0.45,90.16,10.5,-58.1
-1.07,0.1,-0.44,87.08,11.41,-59.64
-1.02,0.12,-0.41,80.36,14.28,-62.37
-0.99,0.17,-0.38,70.14,16.31,-67.13
-0.98,0.19,-0.37,57.68,16.17,-74.83
-0.95,0.18,-0.35,48.02,15.75,-79.38
-0.92,0.13,-0.38,45.99,16.45,-80.08
-0.87,0.09,-0.41,48.02,17.57,-80.29
-0.8,0.07,-0.45,50.68,18.41,-80.85
-0.78,0.01,-0.41,59.99,19.46,-78.68
-0.75,-0.04,-0.34,68.53,21,-75.67
-0.74,-0.07,-0.29,72.1,28.49,-71.96
-0.77,-0.08,-0.28,69.79,31.78,-69.93
-0.75,-0.05,-0.33,61.04,28.91,-69.09
-0.74,-0.08,-0.31,58.17,34.79,-62.79
-0.74,-0.01,-0.3,60.9,35.35,-57.19
-0.76,0.02,-0.26,58.66,35.77,-52.64
-0.8,0.05,-0.23,55.86,35.84,-48.93
-0.86,0.1,-0.21,46.48,35.56,-47.6
-0.94,0.12,-0.24,40.67,31.78,-47.04
-1,0.13,-0.25,38.71,28.49,-45.08
-1.01,0.13,-0.28,40.39,28.28,-41.93
-1,0.16,-0.32,36.12,31.08,-38.5
-1.01,0.16,-0.32,28.91,32.34,-37.1
-1,0.16,-0.31,21.7,30.17,-35.63
-0.98,0.15,-0.31,12.53,25.9,-35.14
-0.95,0.11,-0.35,5.67,23.87,-33.46
-0.92,0.07,-0.37,-0.49,25.2,-31.92
-0.91,0.01,-0.38,-4.06,27.58,-30.45
-0.89,-0.05,-0.36,-3.71,28,-30.8
-0.87,-0.12,-0.35,-2.73,26.81,-32.41
-0.89,-0.13,-0.33,-4.9,23.45,-32.97
-0.91,-0.18,-0.32,-5.46,22.12,-34.16
-0.94,-0.19,-0.32,-8.54,20.93,-34.65
-0.97,-0.19,-0.29,-9.59,17.01,-34.16
-0.98,-0.16,-0.28,-6.65,11.76,-31.5
-0.97,-0.12,-0.29,-1.05,5.67,-28.77
-0.95,-0.09,-0.28,3.78,1.89,-26.46
-0.92,-0.02,-0.29,8.47,0.63,-22.33
-0.9,0,-0.32,13.02,0.98,-20.23
-0.86,0.01,-0.37,17.15,0.77,-18.97
-0.84,-0.01,-0.44,17.57,1.47,-19.6
-0.84,-0.04,-0.48,15.12,2.03,-21.21
-0.87,-0.09,-0.51,13.02,1.89,-23.45
-0.88,-0.17,-0.5,13.02,1.75,-25.13
-0.89,-0.24,-0.5,11.41,2.45,-27.58
-0.93,-0.22,-0.51,5.32,3.08,-29.89
-1.01,-0.16,-0.58,-7.35,3.85,-32.9
-1.09,-0.15,-0.61,-20.86,1.96,-35.21
-1.15,-0.21,-0.59,-25.97,-1.26,-35.84
-1.18,-0.29,-0.52,-27.23,-3.64,-34.58
-1.21,-0.35,-0.46,-24.22,-5.11,-31.5
-1.24,-0.36,-0.41,-17.85,-6.72,-28.7
-1.31,-0.3,-0.41,-10.57,-9.8,-24.85
-1.35,-0.24,-0.42,-6.02,-14.42,-19.32
-1.38,-0.21,-0.43,-3.57,-18.62,-14.42
-1.39,-0.19,-0.45,-2.66,-24.22,-9.8
-1.35,-0.19,-0.42,-1.75,-29.61,-4.27
-1.32,-0.2,-0.38,0.35,-34.79,5.53
-1.29,-0.18,-0.34,3.85,-40.25,15.82
-1.28,-0.16,-0.29,7.98,-47.46,27.72
-1.27,-0.13,-0.26,11.41,-52.22,39.06
-1.27,-0.1,-0.23,11.83,-57.89,48.09
-1.27,-0.04,-0.17,7.14,-63.07,56.07
-1.27,0.03,-0.15,2.52,-65.03,63.91
-1.27,0.13,-0.22,-0.28,-60.13,72.59
-1.27,0.2,-0.26,-5.25,-52.22,78.68
-1.26,0.27,-0.28,-8.19,-45.99,85.61
-1.32,0.22,-0.31,0.63,-42.56,94.01
-1.29,0.28,-0.28,8.75,-47.46,105.14
-1.28,0.24,-0.39,5.04,-54.25,111.3
-1.24,0.14,-0.4,1.19,-63.56,114.94
-1.22,0.03,-0.45,-6.65,-73.85,115.57
-1.19,-0.07,-0.5,-12.32,-72.45,116.27
-1.23,-0.14,-0.51,-16.94,-62.3,117.81
-1.28,-0.24,-0.47,-21.63,-53.9,118.02
-1.21,-0.34,-0.48,-12.74,-50.33,119.07
-1.15,-0.38,-0.4,-4.83,-43.19,124.74
-1.05,-0.32,-0.32,1.4,-32.9,140.84
-1.03,-0.38,-0.23,2.1,-12.32,149.31
-1.07,-0.22,-0.24,-15.61,-1.33,147.91
-1.02,-0.16,-0.25,-32.76,4.41,146.3
-1.03,-0.14,-0.3,-36.96,0.63,146.93
-1.03,-0.03,-0.39,-34.65,-11.13,149.94
-1.01,0.13,-0.43,-42.07,-20.86,150.99
-0.99,0.25,-0.49,-51.94,-27.86,142.87
-1.02,0.36,-0.49,-59.01,-40.88,137.34
-0.97,0.36,-0.35,-62.65,-49.14,127.82
-0.99,0.4,-0.33,-84,-54.18,114.59
-0.98,0.39,-0.3,-106.05,-52.64,102.9
-0.94,0.26,-0.36,-124.39,-60.62,96.32
-0.88,0.2,-0.32,-139.23,-67.13,86.17
-0.83,0.1,-0.29,-151.62,-77.07,75.39
-0.77,0.03,-0.28,-161.07,-86.52,65.31
-0.69,-0.06,-0.27,-161.42,-89.32,59.64
-0.63,-0.12,-0.2,-159.11,-91.35,53.06
-0.56,-0.2,-0.16,-153.44,-91.14,45.36
-0.46,-0.28,-0.13,-145.18,-89.53,40.74
-0.4,-0.33,-0.09,-131.25,-79.52,40.74
-0.35,-0.39,-0.08,-114.17,-70.28,42.28
-0.31,-0.34,-0.06,-94.92,-58.8,42.28
-0.29,-0.27,-0.04,-78.26,-48.93,41.65
-0.3,-0.16,-0.03,-65.1,-40.39,39.34
-0.33,-0.05,-0.05,-59.85,-33.11,35.56
-0.34,0.03,-0.04,-54.81,-25.48,29.89
-0.35,0.09,-0.03,-47.95,-17.08,19.67
-0.36,0.13,-0.02,-39.62,-8.05,11.76
-0.36,0.15,-0.01,-32.13,3.36,4.48
-0.37,0.15,0,-22.96,11.13,-1.05
-0.38,0.13,0.01,-16.17,18.9,-5.53
-0.41,0.12,0.03,-9.17,26.32,-9.87
-0.44,0.12,0.05,-2.73,32.97,-15.54
-0.48,0.12,0.08,3.78,37.66,-22.61
-0.51,0.14,0.09,9.03,44.17,-28.7
-0.55,0.14,0.09,14.07,49.21,-34.23
-0.66,0.11,0.22,25.48,48.93,-39.27
-0.92,0.16,0.53,47.04,34.58,-31.08
-1.11,0.54,0.59,60.83,43.19,-9.31
-1.21,0.75,0.25,35,83.37,-11.69
-1.41,0.59,-0.12,-3.08,95.27,-29.47
-1.46,0.37,-0.27,-1.68,82.18,-33.32
-1.4,0.37,-0.26,12.74,66.92,-31.15
-1.3,0.47,-0.13,10.01,54.25,-30.17
-1.18,0.54,0,4.9,50.33,-41.16
-1.11,0.53,-0.1,2.45,47.88,-51.8
-0.97,0.29,-0.17,-11.27,51.66,-53.13
-0.95,0.12,-0.15,1.4,62.65,-50.54
-1.13,0.12,-0.26,22.75,72.1,-50.75
-1.25,0.09,-0.35,33.74,69.09,-52.71
-1.27,-0.01,-0.4,35.56,65.31,-52.85
-1.23,-0.06,-0.38,39.83,64.47,-50.89
-1.18,-0.03,-0.35,48.23,66.43,-48.93
-1.1,0.02,-0.3,57.12,66.71,-49.42
-1.04,0.03,-0.28,65.94,66.57,-49.98
-1,0.03,-0.28,70.98,63.7,-49.7
-0.98,0.01,-0.31,78.61,59.78,-49.42
-0.99,0,-0.32,84.56,52.99,-48.58
-1.01,0.02,-0.34,91.7,44.1,-47.04
-1.02,0.03,-0.38,96.53,35.77,-45.64
-1.03,0.07,-0.42,98.42,30.03,-44.24
-1.05,0.09,-0.49,98.14,29.47,-44.1
-1.06,0.11,-0.49,96.95,30.31,-45.01
-1.09,0.16,-0.45,89.32,31.08,-46.41
-1.1,0.15,-0.4,90.37,28,-47.88
-1.11,0.18,-0.36,93.73,24.29,-49.7
-1.1,0.23,-0.35,89.95,20.16,-51.8
-1.06,0.26,-0.34,85.33,0,-53.76
-1.01,0.3,-0.34,75.81,16.8,-56.91
-1,0.3,-0.35,66.71,14.56,-61.46
-0.98,0.26,-0.35,58.52,11.9,-66.29
-0.99,0.23,-0.33,54.6,9.87,-70.35
-0.99,0.17,-0.33,51.73,8.75,-72.87
-0.96,0.12,-0.29,49.49,10.36,-73.5
-0.94,0.02,-0.24,52.43,17.5,-73.15
-0.87,-0.04,-0.29,61.88,19.18,-70.77
-0.84,-0.02,-0.26,70.91,16.73,-71.82
-0.82,-0.05,-0.27,72.73,16.94,-70.63
-0.78,-0.11,-0.32,80.92,18.9,-66.29
-0.77,-0.07,-0.31,74.55,21.21,-64.26
-0.77,-0.11,-0.37,67.97,20.44,-63.21
-0.74,-0.06,-0.41,62.72,23.31,-61.39
-0.76,-0.03,-0.41,59.01,24.78,-59.57
-0.79,0.1,-0.39,47.25,23.24,-58.59
-0.81,0.16,-0.35,36.26,25.55,-57.54
-0.84,0.2,-0.3,29.54,29.75,-56
-0.89,0.25,-0.29,23.31,30.73,-53.55
-0.93,0.23,-0.3,14.49,31.15,-54.11
-0.93,0.19,-0.32,8.12,33.88,-54.67
-0.95,0.14,-0.32,4.97,35,-52.85
-0.92,0.04,-0.33,6.37,34.44,-50.33
-0.85,0,-0.33,-1.05,34.16,-46.69
-0.88,-0.03,-0.34,-10.99,34.3,-42.35
-0.9,-0.12,-0.35,-12.67,36.26,-44.66
-0.92,-0.13,-0.34,-12.88,34.65,-45.29
-0.95,-0.09,-0.33,-14,29.26,-43.82
-1,-0.05,-0.27,-15.68,17.22,-41.93
-1.01,-0.05,-0.22,-9.73,4.83,-38.15
-1.01,-0.02,-0.26,-5.81,-0.35,-33.53
-0.99,0.01,-0.29,-5.04,-1.4,-28.63
-0.99,0.01,-0.28,-3.15,-4.97,-26.46
-0.95,0.01,-0.31,0.91,-6.09,-24.36
-0.88,-0.01,-0.36,1.47,-4.34,-23.45
-0.84,-0.07,-0.4,3.08,-3.01,-23.24
-0.81,-0.14,-0.41,5.53,-2.59,-23.73
-0.81,-0.2,-0.44,6.51,-2.38,-24.85
-0.84,-0.24,-0.45,6.79,-2.59,-26.46
-0.85,-0.25,-0.46,7.07,-2.8,-27.58
-0.88,-0.27,-0.47,7.28,-2.73,-29.54
-0.92,-0.3,-0.47,9.73,-3.5,-32.55
-0.94,-0.35,-0.5,12.88,-3.64,-34.65
-0.97,-0.44,-0.6,14.07,-0.35,-38.57
-1.05,-0.45,-0.69,5.46,3.43,-42.98
-1.2,-0.33,-0.75,-12.53,4.9,-47.88
-1.37,-0.25,-0.73,-29.26,-0.07,-50.12
-1.43,-0.3,-0.62,-32.06,-8.4,-45.92
-1.42,-0.4,-0.47,-15.75,-11.55,-37.1
-1.42,-0.45,-0.42,2.59,-13.79,-27.02
-1.41,-0.45,-0.41,21.21,-15.19,-16.66
-1.42,-0.39,-0.39,35.07,-18.55,-5.74
-1.42,-0.27,-0.38,42.49,-24.71,1.89
-1.4,-0.19,-0.34,42.84,-32.83,10.99
-1.35,-0.14,-0.27,39.48,-38.15,21.7
-1.28,-0.1,-0.2,35.84,-41.86,33.74
-1.25,-0.11,-0.15,34.58,-47.46,45.43
-1.23,-0.03,-0.11,28.91,-52.64,57.96
-1.24,0.05,-0.13,23.94,-53.9,73.64
-1.23,0.15,-0.2,24.01,-50.4,84.77
-1.23,0.23,-0.27,19.95,-43.68,91.28
-1.21,0.27,-0.33,15.61,-40.67,96.39
-1.2,0.29,-0.36,14.63,-41.44,101.5
-1.2,0.34,-0.34,15.4,-44.24,108.15
-1.19,0.33,-0.39,11.2,-45.29,113.54
-1.18,0.26,-0.41,4.55,-47.67,115.64
-1.19,0.2,-0.42,-4.62,-55.44,117.32
-1.16,0.11,-0.49,-12.11,-60.41,117.67
-1.21,-0.03,-0.49,-19.04,-65.38,113.54
-1.19,-0.13,-0.49,-25.34,-62.23,109.97
-1.19,-0.2,-0.51,-34.58,-52.99,108.99
-1.07,-0.22,-0.49,-44.59,-39.48,110.39
-1.08,-0.31,-0.37,-42.28,-31.99,117.04
-0.98,-0.28,-0.3,-49.21,-23.94,126
-1,-0.38,-0.17,-52.5,-9.24,134.47
-0.99,-0.37,-0.12,-46.83,4.13,140.42
-1.02,-0.32,-0.17,-47.74,8.19,142.03
-0.99,-0.27,-0.31,-47.95,3.5,144.27
-1.01,-0.11,-0.47,-55.09,-6.37,145.81
-1.01,0.01,-0.49,-57.47,-18.27,148.33
-1.02,0.21,-0.45,-45.01,-34.3,153.37
-1.08,0.32,-0.4,-38.85,-47.04,152.88
-1.05,0.36,-0.27,-52.36,-51.31,143.29
-1.06,0.4,-0.15,-76.65,-54.95,129.64
-1.05,0.33,-0.21,-103.32,-64.12,117.32
-0.96,0.23,-0.26,-123.48,-67.34,104.51
-0.91,0.16,-0.34,-136.01,-76.72,93.66
-0.84,0.1,-0.34,-145.39,-89.6,85.19
-0.81,0.03,-0.3,-151.34,-96.39,77
-0.78,-0.02,-0.23,-159.74,-103.04,67.27
-0.71,-0.1,-0.21,-164.5,-105.98,57.47
-0.62,-0.22,-0.21,-161.28,-105.84,48.51
-0.46,-0.35,-0.21,-145.53,-99.61,46.48
-0.26,-0.41,-0.15,-129.99,-91.21,42.98
-0.26,-0.43,-0.11,-109.2,-80.85,42.07
-0.23,-0.39,-0.05,-82.6,-67.62,42.63
-0.25,-0.32,0.01,-64.26,-54.11,42.91
-0.26,-0.21,0.04,-51.31,-39.62,41.58
-0.3,-0.09,0.03,-44.17,-27.37,36.54
-0.33,0.03,0,-39.06,-17.71,31.36
-0.36,0.1,-0.02,-32.97,-8.89,24.36
-0.39,0.16,-0.01,-25.06,-2.8,16.38
-0.43,0.2,0.02,-16.1,2.45,9.1
-0.46,0.21,0.05,-10.15,6.65,2.31
-0.48,0.19,0.1,-3.64,11.34,-3.22
-0.51,0.16,0.11,2.94,17.36,-10.01
-0.53,0.16,0.12,8.61,23.24,-14.84
-0.55,0.15,0.13,14.21,29.68,-19.88
-0.57,0.13,0.13,21.42,33.88,-24.99
-0.58,0.12,0.12,27.3,38.15,-30.17
-0.58,0.11,0.1,32.97,42.77,-35.28
-0.59,0.1,0.08,38.85,48.09,-41.16
-0.64,0.02,0.18,47.67,48.65,-48.44
-0.81,0.07,0.45,63.42,35.63,-39.34
-0.99,0.43,0.58,80.92,48.65,-17.71
-1.11,0.69,0.38,60.27,89.04,-7.49
-1.4,0.84,0.1,28.35,106.19,-8.26
-1.71,0.93,-0.2,24.57,97.3,1.82
-1.84,1.2,-0.39,32.06,78.12,0.35
-1.92,1.2,-0.26,16.87,47.81,-23.17
-1.63,0.9,-0.02,-20.09,13.93,-60.06
-1.16,0.43,-0.06,-49.49,8.33,-81.13
-0.77,0,-0.01,-68.04,24.22,-85.05
-0.64,-0.27,0.1,-39.69,49.35,-91.7
-0.61,-0.26,-0.36,-4.97,66.71,-91.35
-0.65,-0.27,-0.47,22.26,70,-72.31
-0.8,-0.18,-0.43,45.78,72.8,-52.01
-1.06,-0.05,-0.4,64.26,79.45,-35.14
-1.19,0.04,-0.45,70.14,80.29,-28.7
-1.26,0.09,-0.47,69.23,75.04,-31.08
-1.25,0.08,-0.41,67.13,67.62,-37.66
-1.23,0.07,-0.39,68.88,62.3,-43.89
-1.17,0.06,-0.37,74.27,56.98,-47.32
-1.11,0.05,-0.36,82.53,49.98,-45.99
-1.04,0.06,-0.35,93.38,45.43,-42.77
-1.01,0.06,-0.36,108.22,40.11,-38.92
-0.98,0.06,-0.38,116.41,33.95,-36.26
-0.98,0.06,-0.43,119,29.61,-35.35
-0.98,0.08,-0.46,114.31,28.07,-39.41
-0.99,0.09,-0.47,102.55,28.07,-43.89
-1.02,0.07,-0.48,95.41,26.11,-47.39
-0.93,0.16,-0.19,45.22,35.42,-44.8
-1.01,0.23,-0.19,45.22,35.35,-41.79
-1.01,0.24,-0.24,43.61,32.48,-40.81
-0.97,0.24,-0.31,37.87,28,-40.6
-0.95,0.3,-0.31,26.88,25.13,-36.89
-0.93,0.26,-0.34,13.51,25.34,-38.64
-0.87,0.21,-0.35,-1.68,27.86,-41.72
-0.9,0.14,-0.32,-9.1,32.34,-42.98
-0.93,0.09,-0.3,-7.07,33.04,-42.91
-0.93,0.04,-0.32,-3.92,30.87,-41.58
-0.91,0,-0.34,-2.31,28.35,-39.83
-0.9,-0.04,-0.35,-1.89,26.81,-38.92
-0.92,-0.05,-0.35,-4.13,24.22,-40.74
-0.94,-0.05,-0.32,-8.26,13.51,-42.21
-0.94,-0.04,-0.29,-8.33,6.02,-40.81
-0.96,-0.03,-0.29,-5.25,2.52,-38.29
-0.97,-0.02,-0.28,-1.4,0.98,-36.26
-0.96,-0.02,-0.32,2.73,-0.91,-34.93
-0.92,-0.04,-0.37,5.25,-2.52,-35
-0.76,-0.07,-0.43,7.21,-3.29,-36.19
-0.83,-0.1,-0.48,7.7,-2.03,-37.87
-0.82,-0.15,-0.51,5.39,-1.05,-39.34
-0.82,-0.19,-0.52,2.59,-0.28,-41.3
-0.86,-0.24,-0.51,1.26,0.14,-43.82
-0.9,-0.31,-0.5,3.71,0.28,-45.43
-0.93,-0.41,-0.51,7.14,1.19,-47.18
-1.03,-0.39,-0.58,3.29,3.36,-47.88
-1.14,-0.3,-0.65,-10.57,4.2,-48.3
-1.29,-0.24,-0.69,-27.02,0.63,-48.58
-1.37,-0.22,-0.67,-35.63,-4.69,-46.69
-1.42,-0.26,-0.54,-35.84,-7.56,-40.74
-1.47,-0.34,-0.38,-25.83,-9.94,-27.3
-1.5,-0.39,-0.32,-4.69,-16.03,-15.96
-1.46,-0.4,-0.33,17.15,-22.33,-4.97
-1.43,-0.37,-0.36,34.16,-26.67,2.87
-1.39,-0.28,-0.38,39.69,-31.29,9.94
-1.34,-0.2,-0.35,39.41,-36.75,17.92
-1.29,-0.13,-0.28,36.05,-44.1,26.95
-1.24,-0.07,-0.21,31.15,-51.73,39.62
-1.21,-0.02,-0.15,25.06,-57.19,50.54
-1.22,0.04,-0.14,16.94,-58.03,60.97
-1.27,0.09,-0.17,4.34,-55.09,69.65
-1.32,0.14,-0.23,-5.95,-50.96,77.28
-1.36,0.16,-0.29,-11.2,-45.99,85.75
-1.39,0.19,-0.32,-13.86,-41.3,97.65
-1.4,0.25,-0.34,-10.15,-34.58,105.28
-1.4,0.23,-0.43,4.9,-38.29,108.08
-1.28,0.19,-0.51,9.45,-43.89,107.66
-1.17,0.15,-0.57,7.42,-51.03,107.1
-1.08,0.13,-0.66,-3.08,-59.01,105.63
-1.12,0.07,-0.61,-8.05,-65.38,105.98
-1.06,0,-0.61,-23.52,-66.22,101.29
-1,-0.11,-0.6,-37.59,-39.2,100.87
-1.06,-0.19,-0.54,-44.24,-42.07,102.62
-1.07,-0.29,-0.41,-47.25,-36.47,111.72
-1.01,-0.27,-0.29,-47.74,-32.97,122.15
-1.02,-0.35,-0.09,-53.9,-14.35,130.97
-1.05,-0.4,0,-51.17,8.89,137.9
-1.07,-0.27,-0.08,-43.75,16.87,144.2
-0.9,-0.17,-0.31,-48.3,10.5,144.83
-0.91,0,-0.54,-58.03,3.01,145.18
-0.99,0.17,-0.59,-62.3,-15.96,148.05
-1.04,0.25,-0.49,-42.7,-37.38,152.88
-1.05,0.4,-0.34,-40.11,-55.16,151.48
-1.02,0.35,-0.2,-53.41,-58.59,138.6
-1,0.37,-0.15,-80.29,-60.34,128.31
-0.93,0.34,-0.16,-106.33,-63.42,118.72
-0.9,0.31,-0.21,-132.44,-68.04,108.64
-0.84,0.21,-0.29,-153.02,-78.05,100.03
-0.81,0.14,-0.34,-162.12,-86.38,94.01
-0.8,0.06,-0.31,-166.25,-95.62,86.1
-0.76,-0.03,-0.28,-169.33,-101.29,71.75
-0.72,-0.09,-0.24,-174.86,-107.17,58.38
-0.57,-0.2,-0.22,-175.98,-108.36,47.95
-0.48,-0.36,-0.2,-168.14,-108.36,39.13
-0.3,-0.5,-0.18,-145.74,-97.65,36.05
-0.22,-0.54,-0.1,-123.27,-84.84,35.77
-0.16,-0.54,-0.05,-96.95,-68.46,36.33
-0.15,-0.4,-0.04,-72.59,-49.84,38.5
-0.2,-0.22,-0.04,-56.21,-33.25,37.45
-0.26,-0.05,-0.05,-46.13,-23.94,34.16
-0.3,0.06,-0.04,-37.24,-17.01,27.72
-0.34,0.11,-0.01,-30.17,-8.33,20.72
-0.36,0.15,0.01,-25.06,1.54,13.3
-0.38,0.14,0.01,-18.06,9.17,5.04
-0.41,0.15,0.02,-10.78,14.56,0
-0.44,0.17,0.05,-4.83,20.16,-4.69
-0.5,0.17,0.08,-0.28,24.29,-9.1
-0.53,0.15,0.11,6.44,28.21,-12.46
-0.56,0.14,0.13,13.16,32.83,-14.98
-0.6,0.14,0.16,18.76,37.59,-17.78
-0.62,0.13,0.15,24.08,43.47,-23.1
-0.65,0.11,0.18,29.05,50.05,-28.98
-0.9,0.11,0.4,39.41,35.56,-26.04
-1.18,0.45,0.64,63.07,27.51,-4.2
-1.22,0.79,0.46,46.83,72.38,3.5
-1.45,0.76,-0.08,9.87,87.08,-12.81
-1.47,0.47,-0.27,0.49,73.85,-31.22
-1.43,0.48,-0.27,19.11,50.82,-28.49
-1.41,0.68,-0.08,22.68,33.25,-21.56
-1.4,0.73,0.12,8.61,28.28,-29.54
-1.27,0.62,0.11,-4.34,24.99,-45.36
-0.98,0.37,-0.09,-14.98,28.07,-51.45
-0.78,0.06,-0.04,-14.07,41.58,-49.21
-0.79,-0.05,-0.09,10.36,54.81,-52.29
-0.83,0.02,-0.26,27.79,63.63,-56.35
-0.92,0.04,-0.31,39.06,62.44,-52.36
-1.03,0.15,-0.35,44.87,64.82,-46.13
-1.15,0.24,-0.33,54.25,67.83,-40.04
-1.24,0.31,-0.27,54.88,69.58,-37.03
-1.27,0.3,-0.33,49.07,66.15,-39.97
-1.21,0.23,-0.36,44.45,62.58,-48.16
-1.14,0.16,-0.38,47.11,60.48,-52.64
-1.03,0.14,-0.35,52.64,59.5,-54.11
-0.96,0.16,-0.32,58.73,58.59,-52.22
-0.94,0.16,-0.26,67.83,56.07,-48.44
-0.94,0.14,-0.22,75.6,52.92,-45.08
-0.96,0.11,-0.21,84.77,46.62,-42.56
-1,0.06,-0.23,94.08,39.27,-40.81
-1.05,0.03,-0.29,102.06,30.52,-42.14
-1.1,0.01,-0.37,103.25,22.61,-45.36
-1.15,-0.01,-0.44,100.66,18.83,-49.07
-1.18,0.02,-0.47,97.23,17.71,-52.22
-1.23,0.04,-0.51,93.03,14.98,-54.53
-1.21,0.11,-0.51,87.64,11.41,-55.65
-1.16,0.23,-0.53,74.13,8.82,-58.31
-1.07,0.24,-0.49,63,8.47,-62.44
-0.99,0.24,-0.49,61.32,9.38,-65.73
-0.95,0.23,-0.48,60.62,10.85,-69.16
-0.93,0.2,-0.47,58.73,12.88,-73.08
-0.94,0.16,-0.47,54.74,15.33,-76.93
-0.91,0.07,-0.44,56.98,18.41,-78.05
-0.9,0.03,-0.38,59.36,19.88,-77.56
-0.9,0.04,-0.34,53.83,18.9,-78.68
-0.89,-0.07,-0.27,49.28,22.4,-80.43
-0.85,-0.07,-0.27,60.48,25.06,-78.4
-0.82,-0.14,-0.27,63.42,25.69,-74.62
-0.81,-0.07,-0.29,62.58,23.8,-77.07
-0.75,-0.13,-0.35,64.47,21.77,-72.94
-0.72,-0.09,-0.4,68.04,24.43,-69.16
-0.69,-0.07,-0.38,68.95,29.26,-66.92
-0.71,0.03,-0.36,57.61,29.4,-66.64
-0.73,0.08,-0.29,42.21,30.31,-65.66
-0.78,0.06,-0.22,34.79,34.09,-63.49
-0.84,0.11,-0.24,28.98,36.33,-61.53
-0.88,0.12,-0.26,25.2,35.63,-58.45
-0.91,0.15,-0.25,21.21,37.52,-56.77
-0.95,0.13,-0.26,17.43,39.2,-54.04
-0.94,0.1,-0.3,15.33,38.71,-52.43
-0.93,0.07,-0.32,13.51,36.33,-48.23
-0.93,0.06,-0.32,6.93,33.18,-43.12
-0.92,0.03,-0.31,3.01,30.31,-36.89
-0.94,0.03,-0.31,4.34,28.7,-32.13
-0.96,0.01,-0.31,7.56,30.31,-30.94
-0.95,0,-0.31,9.31,29.05,-29.89
-0.94,0,-0.33,12.81,24.71,-29.4
-0.92,0,-0.34,8.47,17.64,-29.68
-0.92,-0.03,-0.36,3.85,10.99,-30.94
-0.92,-0.06,-0.35,0.98,5.39,-33.18
-0.92,-0.07,-0.34,0.35,1.61,-33.39
-0.92,-0.09,-0.32,4.34,-2.45,-33.18
-0.89,-0.09,-0.34,8.54,-2.73,-32.2
-0.86,-0.1,-0.38,11.27,-1.19,-30.45
-0.84,-0.13,-0.44,14.35,0.21,-28.84
-0.85,-0.18,-0.46,16.38,0.84,-27.44
-0.88,-0.21,-0.47,16.8,1.26,-25.83
-0.92,-0.18,-0.5,14.49,2.24,-25.27
-1.01,-0.14,-0.55,7.91,2.03,-26.18
-1.05,-0.16,-0.6,2.03,0.98,-27.3
-1.07,-0.26,-0.61,0.7,-1.61,-28.21
-1.08,-0.35,-0.59,0.21,-4.2,-28.56
-1.08,-0.4,-0.56,-0.35,-5.18,-27.58
-1.13,-0.39,-0.5,-1.75,-6.51,-26.39
-1.2,-0.37,-0.46,-0.07,-10.29,-24.36
-1.25,-0.34,-0.43,3.57,-11.34,-20.09
-1.33,-0.3,-0.42,7.21,-13.16,-15.68
-1.42,-0.25,-0.44,8.4,-16.87,-12.74
-1.47,-0.21,-0.47,8.96,-21.56,-9.45
-1.48,-0.18,-0.46,8.12,-26.67,-3.57
-1.47,-0.15,-0.44,8.19,-32.9,3.08
-1.39,-0.14,-0.39,11.27,-40.6,12.18
-1.32,-0.15,-0.34,15.61,-44.52,22.82
-1.27,-0.18,-0.26,20.16,-48.02,34.79
-1.26,-0.19,-0.2,24.99,-52.01,46.06
-1.27,-0.17,-0.18,28.98,-55.23,56.98
-1.25,-0.04,-0.21,24.36,-54.39,68.32
-1.25,0.09,-0.25,12.95,-49.84,75.39
-1.22,0.21,-0.28,0.21,-46.34,80.78
-1.17,0.28,-0.3,-9.03,-40.6,87.78
-1.2,0.32,-0.29,-2.45,-36.96,94.15
-1.24,0.37,-0.32,4.41,-39.97,97.58
-1.17,0.39,-0.39,5.95,-38.36,105.49
-1.19,0.29,-0.5,1.26,-38.01,107.66
-1.18,0.2,-0.54,-4.9,-49.63,108.78
-1.16,0.1,-0.67,-22.4,-55.09,108.64
-1.25,-0.03,-0.66,-32.2,-57.82,108.71
-1.25,-0.16,-0.6,-33.53,-62.44,105.91
-1.21,-0.27,-0.48,-37.94,-57.75,103.32
-1.17,-0.29,-0.49,-41.44,-56.35,102.76
-1.05,-0.17,-0.46,-50.89,-45.29,110.39
-0.94,-0.22,-0.24,-50.47,-24.36,121.87
-1.02,-0.23,-0.17,-60.41,-9.8,130.9
-0.99,-0.23,-0.08,-63.98,6.65,138.74
-1.06,-0.18,-0.05,-55.72,7.7,146.51
-1.07,-0.15,-0.13,-50.26,-0.21,151.2
-1.04,-0.04,-0.28,-56.35,-4.41,151.48
-1.03,0.01,-0.37,-66.64,-10.85,147.7
-1.01,0.1,-0.51,-77.98,-25.34,141.82
-1.01,0.17,-0.59,-78.68,-41.58,137.13
-0.99,0.24,-0.54,-74.06,-53.2,134.47
-1,0.33,-0.36,-77.42,-63.7,127.82
-1.03,0.42,-0.22,-98.42,-70.14,115.01
-1.02,0.38,-0.16,-130.97,-73.78,101.99
-0.99,0.22,-0.28,-154.35,-81.9,93.03
-0.89,0.1,-0.36,-166.6,-89.04,86.17
-0.86,-0.02,-0.36,-176.75,-98.7,77.7
-0.77,-0.11,-0.34,-178.01,-105.56,70.07
-0.69,-0.2,-0.27,-175.35,-109.62,60.34
-0.55,-0.32,-0.24,-168.28,-106.75,46.48
-0.41,-0.45,-0.22,-153.09,-102.76,40.32
-0.31,-0.49,-0.18,-133.42,-94.71,37.59
-0.2,-0.49,-0.12,-90.93,-80.57,40.88
-0.22,-0.44,-0.02,-84.84,-67.13,41.23
-0.24,-0.36,0.02,-69.09,-52.71,42.84
-0.27,-0.25,0.01,-57.82,-41.02,41.65
-0.29,-0.1,0.01,-48.72,-31.85,38.5
-0.29,-0.03,0.02,-41.37,-21.84,32.13
-0.3,0.04,0.02,-34.02,-9.66,24.71
-0.31,0.11,0.03,-24.36,-0.7,16.45
-0.36,0.14,0.03,-15.96,6.93,8.68
-0.39,0.17,0.04,-6.3,13.79,1.96
-0.42,0.18,0.06,2.8,19.74,-4.41
-0.45,0.19,0.09,10.01,24.99,-9.03
-0.5,0.2,0.12,14.56,31.22,-13.65
-0.56,0.2,0.14,17.29,36.19,-18.76
-0.59,0.19,0.12,20.58,40.95,-24.36
-0.6,0.18,0,23.24,45.64,-30.87
-0.59,0.17,0.11,27.3,50.54,-37.59
-0.65,0.12,0.23,36.54,51.73,-44.87
-0.82,0.18,0.46,54.53,43.82,-34.09
-0.94,0.52,0.5,66.78,64.68,-15.89
-1.09,0.69,0.27,45.64,99.33,-16.8
-1.36,0.65,-0.04,17.15,105.35,-20.44
-1.57,0.79,-0.32,29.89,96.04,-5.95
-1.78,1.1,-0.27,42.49,81.27,6.3
-2.05,1.2,-0.1,29.47,57.82,-14.28
-1.98,0.93,-0.11,-7.63,17.57,-52.78
-1.28,0.44,-0.14,-42.42,12.11,-72.87
-0.91,-0.04,0,-59.57,34.79,-76.37
-0.71,-0.29,-0.07,-33.6,61.25,-85.19
-0.55,-0.32,-0.44,-0.63,71.4,-93.66
-0.55,-0.36,-0.45,34.79,73.71,-83.3
-0.75,-0.14,-0.32,61.88,79.59,-59.22
-1.01,0.08,-0.27,76.51,84.63,-39.41
-1.22,0.14,-0.28,71.54,80.36,-33.95
-1.29,0.1,-0.29,59.99,70.56,-37.73
-1.29,0.04,-0.32,59.22,64.47,-46.69
-1.28,-0.02,-0.38,66.43,58.24,-54.04
-1.23,-0.03,-0.38,78.54,51.66,-55.86
-1.16,0,-0.36,91.42,44.52,-52.99
-1.08,0.04,-0.35,102.41,34.37,-48.79
-1.03,0.06,-0.35,109.9,28,-45.36
-1,0.09,-0.39,114.52,23.66,-43.19
-0.99,0.08,-0.45,112.84,21.14,-44.03
-0.99,0.08,-0.47,105.91,20.93,-46.97
-1.01,0.08,-0.48,98.77,21.35,-51.87
-1.02,0.07,-0.45,96.11,21.35,-53.55
-1.05,0.12,-0.46,93.52,18.55,-55.51
-1.05,0.14,-0.45,91,17.71,-56.91
-1.04,0.18,-0.45,87.92,16.03,-57.75
-1.03,0.21,-0.44,79.1,16.45,-60.48
-1,0.22,-0.44,70.07,15.54,-65.03
-0.95,0.22,-0.42,63.91,14.35,-68.74
-0.9,0.21,-0.41,60.62,13.16,-71.19
-0.87,0.19,-0.38,56.7,13.79,-73.71
-0.87,0.15,-0.4,55.93,15.33,-75.81
-0.86,0.15,-0.37,51.1,18.83,-78.4
-0.85,0.01,-0.36,55.37,21.56,-78.05
-0.82,-0.02,-0.36,71.19,24.08,-75.95
-0.81,-0.03,-0.29,76.72,24.78,-72.66
-0.77,-0.06,-0.32,71.75,25.2,-69.51
-0.75,-0.06,-0.24,65.03,29.26,-67.76
-0.77,-0.07,-0.22,57.61,30.59,-66.92
-0.77,-0.07,-0.25,53.48,28.98,-64.82
-0.8,-0.02,-0.26,48.16,27.16,-63.77
-0.82,0.04,-0.3,45.78,26.25,-61.53
-0.84,0.09,-0.34,38.22,26.74,-59.36
-0.85,0.12,-0.32,29.47,31.15,-58.45
-0.89,0.18,-0.31,21.7,32.2,-57.47
-0.92,0.17,-0.31,14.14,32.69,-57.47
-0.94,0.12,-0.3,7.21,36.4,-56.84
-0.94,0.05,-0.3,5.04,39.69,-36.4
-0.93,-0.04,-0.28,9.31,40.25,-50.47
-0.93,-0.02,-0.28,5.39,37.52,-48.37
-0.89,-0.05,-0.33,-8.05,35.7,-47.46
-0.96,-0.04,-0.31,-13.93,32.9,-44.87
-0.97,-0.05,-0.31,-9.73,30.66,-45.01
-0.98,-0.03,-0.3,-9.03,24.57,-43.12
-0.98,-0.04,-0.29,-7,13.93,-39.27
-0.98,-0.06,-0.31,-3.99,7.49,-36.47
-0.96,-0.05,-0.35,-2.24,5.04,-33.46
-0.95,-0.03,-0.34,-2.24,1.75,-31.08
-0.95,-0.02,-0.33,-3.71,-1.05,-30.1
-0.94,-0.01,-0.31,-2.52,-3.08,-29.96
-0.91,-0.04,-0.32,0.98,-5.18,-30.8
-0.84,-0.07,-0.36,3.71,-4.2,-30.17
-0.8,-0.11,-0.42,4.55,-2.1,-31.08
-0.77,-0.16,-0.47,3.92,-1.68,-32.41
-0.79,-0.22,-0.5,1.47,-1.82,-34.09
-0.82,-0.28,-0.51,0,-1.54,-35.84
-0.85,-0.36,-0.52,1.96,-0.98,-37.66
-0.89,-0.45,-0.54,5.67,1.61,-40.25
-0.96,-0.46,-0.59,3.85,5.6,-45.64
-1.07,-0.39,-0.66,-5.11,9.45,-48.3
-1.24,-0.33,-0.69,-13.58,7,-48.58
-1.33,-0.31,-0.66,-19.32,-0.63,-46.13
-1.37,-0.34,-0.61,-16.45,-8.4,-40.18
-1.39,-0.37,-0.5,-10.01,-12.95,-32.2
-1.41,-0.38,-0.43,-1.96,-13.16,-20.51
-1.44,-0.37,-0.42,11.41,-13.93,-10.01
-1.44,-0.35,-0.41,23.31,-19.81,-0.14
-1.38,-0.33,-0.38,33.25,-25.69,9.24
-1.34,-0.28,-0.34,35.84,-32.06,20.51
-1.35,-0.18,-0.29,38.36,-39.97,31.78
-1.32,-0.13,-0.24,37.8,-48.72,42.91
-1.3,-0.09,-0.19,36.89,-55.58,53.13
-1.29,-0.04,-0.15,30.52,-61.39,61.95
-1.29,0.02,-0.12,21.63,-65.45,71.47
-1.27,0.08,-0.17,15.05,-59.5,82.11
-1.29,0.17,-0.26,9.66,-50.75,92.82
-1.3,0.2,-0.33,1.68,-48.3,97.16
-1.28,0.22,-0.38,2.17,-50.89,103.81
-1.26,0.23,-0.38,14,-52.64,108.71
-1.2,0.26,-0.34,15.26,-52.22,113.54
-1.17,0.21,-0.4,12.11,-48.93,118.02
-1.19,0.13,-0.42,7.77,-47.6,121.45
-1.19,0.05,-0.46,4.48,-51.73,127.89
-1.19,0,-0.51,-9.1,-52.92,127.05
-1.18,-0.09,-0.54,-23.73,-47.25,121.66
-1.18,-0.17,-0.52,-39.34,-44.52,118.09
-1.18,-0.24,-0.46,-44.87,-41.09,118.09
-1.15,-0.33,-0.44,-41.23,-40.18,118.02
-1.1,-0.29,-0.42,-47.25,-40.81,119
-0.99,-0.29,-0.28,-46.06,-32.41,126.91
-0.97,-0.29,-0.15,-42.35,-17.43,133.7
-1.04,-0.23,-0.1,-44.87,-12.67,140
-1.1,-0.16,-0.12,-44.59,-16.24,144.76
-1.07,-0.11,-0.14,-37.1,-18.27,151.41
-1.1,0.04,-0.19,-37.1,-20.51,154.14
-1.09,0.16,-0.32,-51.59,-23.31,149.38
-1.03,0.18,-0.39,-67.62,-29.19,141.47
-0.98,0.24,-0.42,-78.33,-47.39,133.84
-0.96,0.31,-0.43,-88.27,-66.43,125.58
-0.93,0.35,-0.26,-101.01,-71.19,114.8
-0.95,0.34,-0.26,-121.03,-80.92,106.05
-0.94,0.24,-0.28,-136.57,-90.02,99.75
-0.9,0.15,-0.31,-151.9,-96.81,88.27
-0.86,0.02,-0.32,-162.82,-107.31,78.68
-0.79,-0.1,-0.31,-166.81,-115.85,68.32
-0.73,-0.16,-0.26,-174.51,-122.08,56.91
-0.55,-0.31,-0.23,-164.08,-113.12,48.16
-0.42,-0.48,-0.19,-148.26,-107.31,42.35
-0.29,-0.56,-0.17,-126.98,-97.37,40.18
-0.21,-0.59,-0.1,-104.16,-84.91,39.41
-0.17,-0.56,-0.05,-78.82,-66.85,38.36
-0.18,-0.43,0,-55.86,-52.64,40.46
-0.23,-0.29,0.02,-37.31,-38.64,41.58
-0.28,-0.14,0.01,-28.56,-27.79,37.38
-0.31,-0.04,0,-21.21,-18.97,30.31
-0.33,0.05,0.02,-14.14,-12.18,21.35
-0.37,0.12,0.05,-7.21,-6.58,13.65
-0.43,0.13,0.08,0.14,0.56,7.28
-0.47,0.14,0.1,7.49,6.58,2.24
-0.52,0.16,0.11,17.15,10.57,-1.82
-0.57,0.2,0.13,23.66,14.42,-6.02
-0.62,0.24,0.14,28,18.9,-10.29
-0.66,0.25,0.14,31.22,22.33,-15.68
-0.68,0.24,0.13,33.6,24.71,-19.95
-0.69,0.23,0.12,37.03,26.88,-24.22
-0.71,0.22,0.12,43.26,28.7,-27.16
-0.86,0.22,0.24,54.88,19.74,-24.36
-1.04,0.35,0.43,69.44,10.5,-10.5
-1.12,0.6,0.38,68.74,21.91,5.88
-1.16,0.81,0.19,51.17,43.05,2.31
-1.19,0.77,0.04,29.61,54.25,-10.22
-1.16,0.62,-0.01,19.95,56.42,-22.96
-1.07,0.54,0.01,10.78,62.72,-29.89
-1.03,0.52,-0.03,3.29,59.01,-27.44
-1.04,0.49,-0.01,6.72,48.65,-23.94
-1.06,0.41,0.1,17.22,46.83,-28.35
-1.06,0.33,0.03,19.6,52.57,-37.17
-1,0.22,-0.06,15.54,55.65,-46.41
-0.94,0.16,-0.18,13.16,60.55,-52.29
-0.99,0.12,-0.21,26.81,68.74,-53.2
-1.13,0.14,-0.19,41.51,72.45,-50.75
-1.22,0.24,-0.32,46.48,79.94,-48.58
-1.28,0.26,-0.41,45.5,70.35,-45.64
-1.16,0.22,-0.46,40.39,60.27,-44.03
-1.03,0.18,-0.39,46.55,61.25,-43.12
-0.95,0.17,-0.35,57.61,68.46,-42.91
-0.94,0.19,-0.33,62.86,74.13,-43.96
-0.96,0.19,-0.33,64.33,76.44,-45.01
-0.97,0.16,-0.32,64.19,75.81,-45.01
-1,0.14,-0.31,63.7,73.85,-44.03
-1.01,0.1,-0.3,66.36,68.67,-43.54
-1.02,0.03,-0.3,74.2,62.93,-41.86
-1.02,-0.03,-0.29,92.68,56.07,-38.78
-1.01,-0.05,-0.32,106.89,48.02,-35.14
-1,-0.07,-0.38,118.23,40.11,-32.13
-0.99,-0.08,-0.41,127.96,34.86,-29.89
-0.99,-0.08,-0.46,132.44,33.18,-29.68
-1,-0.03,-0.48,130.9,32.62,-31.57
-1.02,0,-0.49,123.83,34.23,-35.21
-1.02,0.05,-0.49,112.35,38.15,-39.34
-1.05,0.08,-0.51,106.75,38.5,-45.01
-1.06,0.16,-0.5,100.1,35.49,-49
-1.06,0.2,-0.49,98,30.52,-54.32
-1.03,0.25,-0.45,89.39,26.53,-56.56
-0.99,0.28,-0.43,82.04,26.46,-60.9
-0.94,0.32,-0.4,72.8,24.64,-64.19
-0.91,0.33,-0.35,64.82,23.45,-66.78
-0.91,0.31,-0.3,57.4,24.29,-70.28
-0.9,0.25,-0.32,56.35,24.08,-89.6
-0.88,0.16,-0.27,56.91,23.73,-73.01
-0.85,0.05,-0.28,64.4,22.54,-70.98
-0.84,0.03,-0.24,73.08,21.21,-70.56
-0.83,-0.02,-0.22,75.95,23.38,-68.81
-0.81,-0.03,-0.22,72.94,23.59,-65.94
-0.81,-0.09,-0.24,72.87,26.53,-62.44
-0.81,-0.07,-0.22,75.18,28.77,-56.35
-0.84,-0.01,-0.23,68.25,29.61,-51.87
-0.85,-0.02,-0.22,61.6,26.67,-48.09
-0.83,-0.09,-0.23,59.22,24.5,-43.33
-0.85,-0.06,-0.23,61.39,24.85,-38.15
-0.87,-0.05,-0.26,64.61,25.41,-34.65
-0.89,-0.03,-0.31,68.95,24.15,-31.5
-0.9,0.01,-0.37,73.29,24.01,-28.14
-0.91,0.03,-0.41,78.26,23.8,-25.97
-0.91,0.04,-0.46,77.77,21.14,-23.45
-0.9,0.06,-0.5,71.19,18.41,-21.21
-0.9,0.07,-0.52,64.33,16.24,-19.53
-0.88,0.06,-0.5,56.56,17.43,-19.39
-0.87,0.02,-0.48,53.97,19.88,-18.55
-0.86,-0.01,-0.46,53.27,21.21,-17.15
-0.86,-0.03,-0.43,52.64,21.98,-15.4
-0.86,-0.05,-0.43,51.1,20.65,-14.56
-0.88,-0.1,-0.43,45.99,20.09,-15.19
-0.89,-0.15,-0.41,42.7,20.44,-15.19
-0.89,-0.19,-0.41,36.19,17.43,-15.54
-0.91,-0.26,-0.39,33.04,15.4,-15.4
-0.87,-0.31,-0.36,36.89,17.22,-13.37
-0.85,-0.34,-0.33,41.65,19.25,-11.41
-0.85,-0.35,-0.34,43.61,17.5,-11.06
-0.84,-0.34,-0.35,44.94,16.31,-11.83
-0.85,-0.32,-0.36,45.85,14.91,-13.16
-0.85,-0.28,-0.37,46.41,14.21,-14.7
-0.85,-0.23,-0.38,46.13,14.07,-17.08
-0.87,-0.21,-0.39,44.31,13.86,-19.81
-0.91,-0.18,-0.4,41.93,13.02,-22.4
-0.95,-0.16,-0.43,38.78,12.32,-25.2
-0.97,-0.13,-0.46,36.47,10.85,-27.37
-0.96,-0.09,-0.49,35.91,9.38,-28.21
-0.94,-0.08,-0.52,37.45,8.89,-27.86
-0.93,-0.1,-0.53,41.09,9.73,-26.6
-0.95,-0.13,-0.54,45.01,10.78,-24.57
-0.98,-0.16,-0.53,50.61,11.34,-22.4
-0.97,-0.16,-0.51,60.13,10.57,-18.34
-0.96,-0.14,-0.5,64.68,8.4,-13.3
-0.95,-0.13,-0.49,65.94,6.09,-8.75
-0.96,-0.11,-0.48,63.14,4.48,-3.99
-0.98,-0.08,-0.44,58.45,3.85,0.07
-1.02,-0.04,-0.39,54.04,4.48,4.9
-1.06,-0.01,-0.36,50.4,2.8,9.59
-1.06,0.09,-0.34,43.54,1.75,18.97
-1.18,0.14,-0.3,40.6,0.63,27.93
-1.15,0.14,-0.22,35.91,2.24,35.91
-1.18,0.14,-0.13,34.09,0.21,48.65
-1.2,0.15,-0.06,32.97,-4.27,60.55
-1.25,0.14,-0.07,33.6,-12.88,73.29
-1.3,0.1,-0.1,39.69,-24.22,86.24
-1.33,0.05,-0.15,44.03,-37.03,98.49
-1.32,-0.05,-0.17,43.26,-48.09,107.45
-1.28,-0.14,-0.16,39.41,-54.32,112.7
-1.24,-0.25,-0.17,31.64,-56.63,114.87
-1.2,-0.35,-0.24,23.59,-55.72,118.16
-1.16,-0.5,-0.28,27.93,-49.77,125.3
-1.18,-0.61,-0.31,41.09,-48.16,133.7
-1.18,-0.7,-0.33,49.35,-48.44,141.75
-1.12,-0.76,-0.38,54.11,-46.69,146.58
-1.11,-0.83,-0.38,63.14,-42.14,151.06
-1.01,-0.82,-0.38,74.69,-31.01,153.44
-0.97,-0.74,-0.36,67.69,-16.52,156.8
-0.96,-0.67,-0.34,53.34,-10.71,157.64
-0.98,-0.73,-0.23,62.02,-10.08,157.08
-1.06,-0.63,-0.3,56.42,-20.72,147.56
-1.02,-0.58,-0.25,51.45,-24.22,134.75
-1.05,-0.61,-0.21,58.59,-26.95,120.82
-1.04,-0.55,-0.18,67.06,-31.29,114.17
-1.02,-0.53,-0.13,75.04,-31.22,108.64
-1.01,-0.38,-0.15,64.12,-31.99,104.51
-0.96,-0.33,-0.14,49.56,-34.16,98.98
-0.92,-0.33,-0.15,42.84,-38.85,93.87
-0.87,-0.35,-0.18,38.78,-42.07,88.62
-0.82,-0.37,-0.19,39.34,-42.77,82.53
-0.81,-0.35,-0.22,37.73,-45.99,74.06
-0.73,-0.36,-0.26,33.39,-46.97,65.87
-0.71,-0.39,-0.29,35.28,-46.2,58.8
-0.64,-0.41,-0.3,41.58,-43.89,53.69
-0.63,-0.42,-0.31,48.44,-43.12,50.12
-0.61,-0.41,-0.32,55.3,-42.07,44.17
-0.57,-0.39,-0.34,58.17,-37.1,36.54
-0.53,-0.39,-0.33,61.67,-30.45,30.1
-0.52,-0.38,-0.34,66.78,-26.67,24.57
-0.55,-0.35,-0.34,73.64,-25.41,21
-0.5,-0.3,-0.33,82.6,-19.46,16.03
-0.51,-0.26,-0.32,89.95,-10.08,11.06
-0.53,-0.21,-0.3,95.13,-1.82,5.74
-0.57,-0.13,-0.32,101.36,6.23,5.18
-0.64,0,-0.29,101.43,13.72,5.11
-0.71,0.03,-0.33,99.68,16.17,4.83
-0.77,0.07,-0.31,93.1,18.62,4.27
-0.79,0.12,-0.33,90.23,22.4,6.51
-0.82,0.18,-0.35,86.24,25.48,8.47
-0.82,0.26,-0.36,83.37,29.82,11.34
-0.82,0.34,-0.38,81.27,36.19,12.18
-0.82,0.39,-0.37,82.88,42.35,15.19
-0.86,0.5,-0.38,82.04,46.48,22.12
-0.87,0.58,-0.35,81.69,49.91,29.96
-0.89,0.66,-0.32,77.21,53.97,36.89
-0.98,0.66,-0.23,71.12,49.91,43.05
-1.08,0.66,-0.1,71.33,52.36,38.15
-1.28,0.5,-0.02,61.74,45.22,21.21
-1.41,0.37,0.01,50.33,23.66,-0.77
-1.44,0.37,0.04,39.41,2.52,-16.03
-1.46,0.46,0.2,36.75,-11.41,-18.48
-1.42,0.54,0.35,40.25,-13.37,-11.76
-1.33,0.54,0.24,43.19,-7.14,-2.87
-1.27,0.37,0.04,45.78,-1.47,0.14
-1.16,0.17,-0.07,49.98,1.75,-1.4
-1.04,-0.01,-0.2,55.23,9.17,-9.1
-1,-0.18,-0.33,56.28,18.48,-16.94
-1.03,-0.29,-0.35,55.09,29.19,-13.23
-1.08,-0.24,-0.35,59.5,39.69,2.45
-1.17,-0.12,-0.34,60.41,35.49,19.18
-1.26,-0.06,-0.34,49.91,21.56,19.67
-1.35,-0.02,-0.34,40.95,11.48,17.29
-1.38,-0.02,-0.29,42.56,11.9,14.98
-1.33,0,-0.29,58.45,13.09,17.64
-1.19,0.02,-0.24,84.07,11.41,21.77
-0.97,0.08,-0.2,106.26,8.68,25.41
-0.75,0.07,-0.21,118.58,11.2,28.07
-0.5,-0.03,-0.29,111.72,14.56,29.47
-0.51,-0.21,-0.4,94.5,19.74,31.29
-0.36,-0.34,-0.49,80.78,28.49,27.93
-0.34,-0.39,-0.62,87.08,36.96,23.03
-0.45,-0.42,-0.71,98.98,35.91,20.51
-0.61,-0.38,-0.72,108.08,29.82,19.25
-0.78,-0.33,-0.79,114.59,23.66,18.69
-0.89,-0.23,-0.74,113.61,18.62,15.4
-0.95,-0.15,-0.74,101.43,20.09,9.17
-0.97,-0.07,-0.67,77.35,24.36,4.06
-0.96,-0.05,-0.55,65.17,23.1,1.33
-0.92,-0.01,-0.47,53.34,26.11,-0.63
-0.89,-0.05,-0.47,55.44,27.65,2.59
-0.88,-0.05,-0.5,62.51,27.58,5.67
-0.81,-0.06,-0.55,70.35,29.82,9.38
-0.84,-0.12,-0.57,78.33,27.23,10.92
-0.82,-0.17,-0.58,85.54,23.17,12.67
-0.81,-0.2,-0.58,94.57,21.35,14.63
-0.8,-0.22,-0.57,102.41,21.21,15.82
-0.81,-0.22,-0.62,104.86,21.49,16.45
-0.8,-0.2,-0.59,110.6,24.15,17.5
-0.8,-0.21,-0.58,110.88,25.2,18.41
-0.8,-0.18,-0.58,112.63,25.27,18.41
-0.81,-0.17,-0.57,111.51,26.32,18.55
-0.8,-0.16,-0.51,112.49,27.3,18.2
-0.83,-0.15,-0.49,112.7,26.46,19.39
-0.83,-0.16,-0.49,117.25,24.15,21.35
-0.87,-0.11,-0.49,120.05,22.61,23.03
-0.89,-0.05,-0.51,116.27,20.02,22.61
-0.88,-0.06,-0.52,105.77,19.25,21
-0.9,-0.08,-0.48,106.4,20.58,20.51
-0.88,-0.07,-0.5,106.89,21.14,20.58
-0.86,-0.07,-0.55,108.71,21.35,20.72
-0.86,-0.03,-0.56,108.64,20.3,21.07
-0.88,-0.06,-0.57,107.38,18.06,21.07
-0.85,-0.06,-0.57,121.94,21.35,21.98
-0.81,-0.08,-0.57,123.55,21.91,23.87
-0.95,-0.03,-0.5,124.74,17.99,22.68
-0.9,-0.04,-0.53,120.4,20.72,17.08
-0.9,-0.04,-0.54,107.03,17.57,8.4
-0.87,-0.03,-0.49,95.2,11.34,2.38
-0.84,-0.03,-0.45,82.81,10.36,-2.38
-0.82,-0.06,-0.42,80.5,13.3,-4.13
-0.83,-0.03,-0.44,76.72,13.51,-5.46
-0.84,-0.02,-0.43,73.85,15.68,-7
-0.87,-0.04,-0.44,70.7,15.05,-9.17
-0.89,-0.05,-0.44,67.62,13.86,-11.62
-0.9,-0.08,-0.44,62.93,13.16,-14.35
-0.89,-0.11,-0.43,61.95,12.88,-16.24
-0.89,-0.13,-0.43,60.06,12.32,-17.36
-0.92,-0.13,-0.44,59.64,12.18,-19.53
-0.91,-0.13,-0.47,60.41,11.2,-21.56
-0.9,-0.09,-0.48,61.46,9.73,-23.17
-0.88,-0.07,-0.5,62.23,9.52,-23.94
-0.87,-0.06,-0.51,62.65,10.78,-24.57
-0.88,-0.07,-0.52,61.88,11.76,-24.36
-0.92,-0.08,-0.51,62.72,12.04,-22.26
-0.96,-0.09,-0.48,61.32,10.22,-19.81
-1,-0.1,-0.45,60.97,9.24,-15.47
-1.02,-0.14,-0.41,61.32,8.05,-9.45
-1.02,-0.17,-0.37,65.45,7.21,-4.48
-1.03,-0.19,-0.32,69.93,7.21,0.98
-1.04,-0.18,-0.28,74.69,5.6,5.46
-1.08,-0.1,-0.25,75.32,1.54,9.1
-1.1,-0.01,-0.25,74.97,-3.36,12.67
-1.12,0.09,-0.29,71.75,-9.1,17.99
-1.16,0.21,-0.33,64.68,-14.7,23.03
-1.23,0.28,-0.34,53.06,-22.19,28.98
-1.27,0.28,-0.29,42.14,-26.11,36.89
-1.28,0.22,-0.14,36.68,-28.28,47.04
-1.37,0.12,0,41.44,-33.81,59.15
-1.48,0.11,0.42,44.8,-37.45,72.73
-1.61,0.12,0.26,35.91,-47.67,91.28
-1.6,0.02,0.01,47.6,-82.53,110.81
-1.46,-0.05,-0.23,44.38,-107.24,122.92
-1.27,-0.15,-0.42,29.05,-107.8,125.44
-1.18,-0.42,-0.45,33.18,-87.92,132.93
-1.2,-0.55,-0.49,43.05,-80.08,146.51
-1.25,-0.71,-0.56,44.38,-82.88,153.51
-1.21,-0.77,-0.59,37.94,-79.17,158.06
-1.23,-0.73,-0.6,26.74,-68.67,161.84
-1.17,-0.65,-0.61,19.39,-52.64,167.16
-1.15,-0.62,-0.61,19.53,-43.96,171.08
-1.16,-0.4,-0.57,17.01,-43.75,174.16
-1.23,-0.36,-0.56,21.14,-50.89,167.3
-1.2,-0.38,-0.43,40.25,-51.38,163.38
-1.25,-0.36,-0.29,70.49,-56.7,170.87
-1.61,-0.26,-0.07,87.15,-78.47,179.13
-1.4,-0.18,0.01,83.44,-72.24,179.2
-1.37,-0.1,-0.12,67.55,-58.1,179.13
-1.35,0.01,-0.2,46.76,-52.71,179.83
-1.32,0.04,-0.34,30.1,-58.03,183.47
-1.35,0.1,-0.34,13.3,-70.49,183.68
-1.37,0.1,-0.26,-0.49,-78.47,180.32
-1.27,0.12,-0.31,-14.63,-94.5,175.07
-1.21,0.2,-0.37,-50.68,-105.49,165.83
-1.19,0.23,-0.38,-54.95,-115.57,154.42
-1.15,0.24,-0.32,-62.86,-115.5,143.01
-1.11,0.22,-0.26,-77.7,-119.21,129.57
-1.06,0.16,-0.23,-97.58,-126,110.88
-0.94,0.06,-0.28,-113.82,-126.98,97.16
-0.78,-0.09,-0.3,-125.37,-128.52,84.77
-0.61,-0.22,-0.31,-124.67,-130.48,73.92
-0.49,-0.3,-0.23,-115.57,-126.35,65.45
-0.34,-0.32,-0.12,-98.77,-112.77,63.91
-0.29,-0.29,-0.06,-82.18,-94.5,61.6
-0.22,-0.21,-0.05,-64.4,-77.07,61.6
-0.19,-0.12,-0.04,-51.03,-59.85,59.71
-0.23,0,-0.04,-42.98,-50.26,55.09
-0.27,0.13,-0.04,-36.26,-44.17,47.53
-0.31,0.2,-0.01,-36.05,-39.34,36.47
-0.34,0.23,0.03,-36.12,-33.67,27.79
-0.34,0.22,0.08,-31.99,-26.95,18.97
-0.35,0.22,0.11,-26.81,-19.46,12.95
-0.4,0.24,0.15,-21,-10.5,8.33
-0.45,0.26,0.19,-16.52,-4.27,3.92
-0.51,0.28,0.22,-16.31,0.35,-0.42
-0.55,0.29,0.22,-17.99,3.99,-5.11
-0.57,0.3,0.22,-17.85,6.79,-9.87
-0.59,0.29,0.22,-15.61,9.94,-15.19
-0.59,0.28,0.22,-11.83,14.35,-19.39
-0.57,0.25,0.23,-7,19.39,-22.96
-0.56,0.21,0.23,-0.63,25.34,-26.81
-0.56,0.2,0.24,4.9,31.78,-30.87
-0.65,0.18,0.39,15.89,32.69,-33.74
-1.13,0.37,0.82,37.17,6.23,-14.98
-1.67,0.96,1.04,61.25,-3.71,25.27
-1.78,1.47,0.48,43.96,49.7,35.63
-1.73,1.24,-0.02,-14.42,50.96,-4.06
-1.37,0.71,-0.02,-34.09,31.71,-41.65
-0.89,0.4,0.01,-48.44,24.36,-71.12
-0.62,0.09,0.12,-41.16,23.1,-73.78
-0.41,-0.17,0.48,-29.12,37.38,-59.08
-0.51,-0.08,0.31,-14.35,62.44,-52.71
-0.77,0.21,-0.01,5.6,79.38,-51.94
-0.79,0.24,-0.16,19.39,90.51,-51.66
-0.8,0.04,-0.19,34.37,101.85,-46.83
-0.88,-0.01,-0.38,46.34,105.21,-41.23
-1.01,0.05,-0.42,63.21,106.89,-37.24
-1.07,0.13,-0.35,68.11,107.8,-38.64
-1.1,0.11,-0.3,72.59,103.6,-39.55
-1.01,0.09,-0.36,77.35,99.61,-38.5
-0.97,0.06,-0.41,90.23,97.23,-35.28
-0.97,0.03,-0.37,98.77,93.8,-31.92
-1.01,-0.01,-0.31,104.09,92.54,-29.82
-1.04,-0.04,-0.36,104.65,94.22,-30.03
-1.05,-0.09,-0.43,108.01,91.07,-28.77
-1.08,-0.12,-0.48,115.64,85.68,-27.86
-1.12,-0.12,-0.5,124.04,79.31,-28
-1.16,-0.13,-0.5,133.35,66.71,-28.56
-1.19,-0.1,-0.51,141.54,54.11,-27.51
-1.23,-0.06,-0.48,144.83,44.17,-28.14
-1.27,-0.02,-0.43,146.51,36.75,-33.39
-1.3,0.06,-0.4,145.18,29.96,-39.76
-1.29,0.09,-0.41,137.97,24.57,-45.64
-1.26,0.15,-0.37,131.67,20.65,-49.56
-1.21,0.22,-0.37,121.31,15.89,-54.67
-1.15,0.32,-0.43,104.37,11.34,-62.23
-1.1,0.4,-0.49,86.52,5.46,-71.96
-1.05,0.46,-0.47,70.21,1.47,-82.88
-1.01,0.45,-0.44,59.92,-0.7,-89.04
-0.96,0.38,-0.38,55.37,0.77,-92.54
-0.92,0.28,-0.33,50.82,5.6,-94.29
-0.87,0.13,-0.31,60.69,11.55,-90.86
-0.8,0.04,-0.35,78.26,17.01,-88.69
-0.78,0.07,-0.29,90.58,21.35,-86.66
-0.82,0.05,-0.3,81.62,22.75,-84.28
-0.85,0.09,-0.41,63.56,19.6,-83.72
-0.74,-0.1,-0.49,56.91,19.74,-77.7
-0.65,-0.19,-0.51,70.56,26.95,-71.96
-0.62,-0.11,-0.42,65.59,37.73,-69.58
-0.68,-0.17,-0.32,52.01,39.76,-70.56
-0.75,-0.11,-0.26,46.13,46.06,-69.09
-0.8,-0.07,-0.21,35,50.26,-68.6
-0.9,-0.06,-0.18,27.65,48.58,-68.6
-0.96,-0.03,-0.16,24.01,47.46,-67.48
-1.01,0,-0.18,31.5,46.97,-64.61
-1.02,0.05,-0.36,32.55,40.46,-62.44
-1.02,0.16,-0.34,20.51,30.8,-58.38
-0.99,0.12,-0.4,16.8,31.15,-58.87
-0.93,0.09,-0.39,14.91,34.37,-54.11
-0.92,0.08,-0.35,12.25,38.08,-47.46
-0.96,0.1,-0.31,8.61,38.85,-43.19
-1,0.1,-0.27,5.11,31.01,-41.86
-1.06,0.07,-0.24,9.45,16.45,-42.91
-1.04,0.11,-0.25,18.97,3.15,-39.48
-0.96,0.18,-0.35,24.5,0.56,-34.16
-0.92,0.22,-0.41,21.42,2.66,-33.25
-0.9,0.21,-0.42,15.05,1.61,-33.46
-0.89,0.12,-0.39,12.04,1.12,-33.67
-0.88,0,-0.38,12.67,0.7,-33.67
-0.88,-0.12,-0.43,12.39,0.42,-33.95
-0.88,-0.21,-0.46,9.94,-0.14,-35.35
-0.87,-0.31,-0.49,7.49,-0.7,-37.1
-0.87,-0.39,-0.52,6.37,-0.98,-38.85
-0.87,-0.47,-0.56,6.72,-0.28,-40.18
-0.93,-0.5,-0.6,4.83,0.91,-43.26
-1.03,-0.43,-0.65,-3.08,1.47,-44.45
-1.22,-0.34,-0.68,-14.21,-0.07,-45.01
-1.35,-0.28,-0.68,-23.59,-5.88,-44.45
-1.42,-0.28,-0.6,-27.37,-10.85,-40.25
-1.47,-0.29,-0.47,-22.54,-15.33,-33.74
-1.42,-0.3,-0.42,-9.38,-18.55,-24.43
-1.37,-0.34,-0.38,6.16,-19.18,-11.41
-1.34,-0.36,-0.37,21.35,-20.79,-1.75
-1.32,-0.33,-0.37,33.95,-25.69,7.63
-1.32,-0.25,-0.36,42.07,-32.48,18.41
-1.3,-0.17,-0.32,41.3,-38.99,28.98
-1.26,-0.12,-0.24,38.71,-48.44,40.53
-1.21,-0.07,-0.17,32.34,-54.46,69.93
-1.22,0,-0.12,24.08,-59.08,66.15
-1.21,0.08,-0.14,14.07,-56.14,77.07
-1.24,0.16,-0.22,3.5,-46.97,85.26
-1.29,0.21,-0.31,-8.19,-39.55,90.3
-1.32,0.21,-0.39,-9.73,-37.38,95.48
-1.35,0.18,-0.42,-6.51,-43.19,101.78
-1.32,0.17,-0.43,-3.29,-49.28,110.95
-1.28,0.1,-0.45,-0.7,-51.94,117.88
-1.2,0.05,-0.44,5.25,-56.14,121.66
-1.23,-0.02,-0.49,5.11,-63,121.59
-1.2,-0.09,-0.46,-2.1,-63.07,121.73
-1.26,-0.12,-0.49,-19.04,-59.5,122.15
-1.28,-0.18,-0.45,-27.72,-53.2,118.23
-1.24,-0.35,-0.42,-17.71,-51.8,116.27
-1.18,-0.33,-0.42,-29.96,-53.62,114.87
-1.02,-0.34,-0.31,-32.9,-44.94,122.08
-0.99,-0.4,-0.17,-30.52,-32.69,136.01
-1.02,-0.35,-0.1,-32.06,-23.94,144.62
-0.97,-0.33,-0.11,-31.78,-16.73,151.41
-0.95,-0.28,-0.17,-31.57,-12.88,158.27
-0.93,-0.14,-0.3,-38.64,-14.77,161.63
-0.98,-0.04,-0.37,-48.3,-20.72,159.67
-1,0.07,-0.47,-51.03,-31.85,158.55
-1.03,0.22,-0.49,-52.36,-46.13,153.37
-1.01,0.31,-0.45,-54.81,-61.11,143.01
-0.98,0.37,-0.35,-68.32,-67.06,128.94
-0.98,0.43,-0.28,-87.78,-73.71,112.21
-0.91,0.38,-0.23,-112.91,-78.47,99.05
-0.84,0.25,-0.3,-139.16,-85.68,86.66
-0.8,0.1,-0.35,-157.08,-94.99,76.23
-0.73,-0.05,-0.35,-165.06,-102.83,68.6
-0.65,-0.16,-0.36,-160.37,-106.68,61.88
-0.57,-0.24,-0.27,-151.83,-104.3,54.74
-0.49,-0.3,-0.22,-142.17,-98.7,45.29
-0.39,-0.39,-0.18,-129.5,-73.01,40.81
-0.29,-0.47,-0.13,-110.67,-79.59,37.1
-0.22,-0.47,-0.11,-73.15,-69.44,35.84
-0.2,-0.41,-0.05,-65.87,-54.81,37.52
-0.22,-0.35,-0.01,-48.16,-40.11,37.38
-0.27,-0.22,0,-34.86,-24.92,38.01
-0.33,-0.05,0,-26.18,-13.02,33.81
-0.39,0.06,-0.01,-22.89,-3.92,26.74
-0.43,0.13,-0.02,-22.26,0.7,18.34
-0.45,0.17,-0.01,-17.85,4.62,10.78
-0.46,0.2,0.04,-10.08,9.03,4.41
-0.48,0.21,0.09,-2.59,14.49,-0.77
-0.5,0.21,0.11,3.36,19.46,-6.37
-0.53,0.23,0.13,8.19,22.89,-11.27
-0.57,0.23,0.13,11.9,27.3,-16.45
-0.62,0.22,0.14,14.49,30.66,-21.7
-0.72,0.2,0.23,22.75,27.3,-25.41
-0.94,0.3,0.58,41.23,14.63,-16.73
-1.07,0.61,0.56,52.08,25.41,-2.03
-1.15,0.76,0.28,33.81,57.75,-10.71
-1.2,0.56,-0.03,5.46,70.21,-33.11
-1.14,0.29,-0.17,0.07,69.93,-42.91
-1.1,0.17,-0.2,7.77,64.47,-39.62
-1.12,0.15,0.01,17.29,60.76,-27.44
-1.18,0.24,0.13,24.22,62.51,-24.15
-1.24,0.39,-0.11,27.65,60.13,-32.83
-1.15,0.38,-0.26,17.92,47.39,-42.07
-1.08,0.23,-0.14,11.13,47.53,-45.08
-1.13,0.15,-0.22,22.33,65.17,-48.37
-1.16,0.13,-0.35,34.44,73.36,-54.46
-1.2,0.1,-0.42,40.67,68.32,-58.17
-1.16,0.08,-0.37,43.82,60.34,-58.38
-1.13,0.09,-0.27,51.52,56.91,-55.65
-1.12,0.13,-0.22,59.08,56.56,-53.83
-1.12,0.14,-0.17,63.49,58.73,-52.08
-1.11,0.15,-0.19,65.8,56.7,-50.96
-1.07,0.13,-0.25,69.93,51.03,-50.12
-1.02,0.12,-0.28,75.81,44.87,-49.91
-0.98,0.12,-0.29,83.37,37.45,-49.84
-0.96,0.13,-0.33,90.16,30.24,-50.05
-0.95,0.14,-0.37,94.01,24.15,-49.49
-0.95,0.13,-0.43,94.01,19.6,-49.77
-0.97,0.13,-0.49,90.72,18.48,-51.03
-0.99,0.14,-0.56,84.49,18.55,-53.48
-1.01,0.12,-0.6,80.15,19.67,-54.39
-1.01,0.14,-0.6,74.41,23.59,-55.44
-1.02,0.15,-0.58,70.21,25.55,-55.44
-1.02,0.18,-0.5,68.04,29.82,-57.4
-1.01,0.23,-0.46,63.7,30.52,-57.96
-1,0.27,-0.47,56.63,27.79,-59.15
-1,0.27,-0.44,54.25,24.5,-63
-1,0.27,-0.39,48.86,22.26,-69.23
-1,0.26,-0.35,41.58,21,-77.63
-1.01,0.19,-0.34,37.03,21.14,-85.05
-0.99,0.14,-0.33,32.69,22.26,-86.66
-0.93,0.06,-0.34,33.74,22.47,-86.31
-0.92,-0.06,-0.33,42.42,23.73,-82.6
-0.87,-0.11,-0.3,62.72,25.76,-76.79
-0.82,-0.13,-0.22,68.95,31.22,-72.66
-0.86,-0.1,-0.18,60.69,31.5,-71.96
-0.82,-0.19,-0.12,50.26,35.98,-69.37
-0.77,-0.31,-0.15,50.4,38.57,-66.29
-0.76,-0.29,-0.17,57.26,37.73,-61.74
-0.75,-0.23,-0.2,60.48,31.71,-57.89
-0.77,-0.14,-0.25,57.47,25.34,-56.28
-0.8,-0.05,-0.26,53.27,26.53,-56.07
-0.85,0.09,-0.28,40.53,28.28,-55.51
-0.85,0.16,-0.28,26.81,29.89,-55.58
-0.93,0.21,-0.29,17.64,31.78,-54.95
-0.97,0.21,-0.29,14.77,32.69,-53.97
-1,0.22,-0.27,16.17,32.62,-51.17
-0.99,0.17,-0.3,19.04,30.52,-48.23
-0.96,0.12,-0.32,16.03,26.6,-47.95
-0.92,0.09,-0.39,7,22.75,-47.11
-0.87,0.07,-0.43,-4.76,25.27,-47.39
-0.9,0.03,-0.4,-15.96,31.29,-48.72
-0.93,-0.01,-0.36,-19.46,35.98,-49.28
-0.97,-0.02,-0.34,-14.84,36.26,-46.06
-1,0,-0.3,-11.62,26.11,-43.68
-1,-0.01,-0.29,-12.6,13.09,-41.37
-1,0.02,-0.3,-12.39,6.44,-37.73
-0.99,0.06,-0.28,-13.23,5.04,-33.81
-1.02,0.07,-0.25,-12.04,0.63,-31.43
-1,0.05,-0.24,-5.32,-4.76,-29.33
-0.91,0.01,-0.31,-0.28,-3.64,-26.39
-0.84,-0.05,-0.39,3.08,-0.84,-24.85
-0.81,-0.15,-0.45,4.27,-0.77,-25.97
-0.79,-0.2,-0.49,2.94,-1.33,-28.21
-0.8,-0.25,-0.5,0.77,-1.89,-30.24
-0.82,-0.31,-0.5,0.77,-2.31,-32.27
-0.82,-0.37,-0.49,3.71,-1.4,-32.69
-0.86,-0.38,-0.49,4.69,1.54,-33.11
-0.92,-0.33,-0.57,-0.07,4.62,-34.93
-0.99,-0.3,-0.65,-7.91,5.6,-39.48
-1.07,-0.32,-0.66,-13.79,2.45,-40.74
-1.14,-0.38,-0.61,-17.64,-0.7,-39.2
-1.17,-0.43,-0.54,-14.35,-4.27,-34.79
-1.2,-0.43,-0.46,-7.07,-7,-28.7
-1.21,-0.39,-0.44,0.7,-6.44,-22.26
-1.28,-0.25,-0.45,7.84,-5.39,-19.95
-1.38,-0.33,-0.47,15.96,-11.9,-17.43
-1.41,-0.28,-0.53,17.92,-17.01,-14.77
-1.39,-0.25,-0.54,16.87,-20.65,-11.83
-1.36,-0.23,-0.48,17.08,-25.9,-6.3
-1.36,-0.19,-0.41,18.83,-33.39,1.54
-1.35,-0.15,-0.31,21.35,-42,12.11
-1.32,-0.1,-0.24,23.52,-47.95,27.58
-1.32,-0.04,-0.2,22.47,-52.36,38.64
-1.31,0.01,-0.17,19.6,-55.44,49.42
-1.3,0.07,-0.18,14.84,-55.72,59.64
-1.3,0.14,-0.22,7.14,-55.72,67.76
-1.28,0.2,-0.27,-4.06,-53.83,74.55
-1.29,0.22,-0.29,-8.82,-52.22,79.87
-1.28,0.28,-0.3,-6.65,-53.62,89.88
-1.29,0.28,-0.33,-0.28,-54.11,100.17
-1.32,0.25,-0.37,0.7,-55.93,107.87
-1.3,0.17,-0.41,-2.03,-57.12,112.14
-1.25,0.1,-0.46,-10.78,-55.44,113.82
-1.27,-0.03,-0.48,-7.98,-60.83,116.83
-1.25,-0.14,-0.5,-5.95,-63.42,119.21
-1.26,-0.2,-0.55,-11.9,-60.48,118.02
-1.24,-0.26,-0.51,-17.78,-49.84,113.61
-1.09,-0.25,-0.55,-37.38,-46.41,110.81
-0.99,-0.25,-0.44,-36.96,-47.11,116.55
-0.93,-0.22,-0.27,-48.86,-42.35,122.92
-0.86,-0.29,-0.21,-56.56,-23.59,133.42
-0.92,-0.27,-0.09,-50.54,0.28,145.95
-1.07,-0.3,-0.02,-46.9,1.12,151.27
-1.13,-0.18,-0.13,-45.08,-9.87,154.63
-1.09,0.01,-0.43,-65.66,-16.31,152.53
-1.09,0.07,-0.57,-64.19,-28.63,151.97
-1.09,0.17,-0.65,-59.22,-48.58,148.19
-1.02,0.32,-0.53,-52.36,-59.01,125.58
-1.06,0.41,-0.36,-64.05,-68.46,130.9
-1.05,0.37,-0.21,-90.51,-78.47,120.26
-0.95,0.28,-0.22,-122.43,-84.56,109.41
-0.88,0.19,-0.29,-153.02,-90.51,102.06
-0.83,0.1,-0.35,-163.66,-98.91,97.86
-0.78,-0.05,-0.36,-166.39,-106.82,91.56
-0.74,-0.12,-0.33,-167.37,-112.77,77.98
-0.66,-0.21,-0.28,-169.4,-112.21,64.54
-0.56,-0.3,-0.26,-168,-110.25,51.66
-0.38,-0.44,-0.25,-157.71,-106.82,41.37
-0.25,-0.53,-0.21,-137.27,-99.26,33.25
-0.11,-0.57,0,-118.51,-86.17,30.17
-0.08,-0.54,-0.04,-97.02,-69.44,30.38
-0.09,-0.44,-0.01,-76.23,-50.54,33.32
-0.13,-0.27,-0.03,-59.15,-33.6,35.42
-0.19,-0.14,-0.04,-43.61,-15.96,34.86
-0.24,0,-0.04,-30.59,-5.39,30.8
-0.28,0.08,-0.03,-18.13,2.52,24.92
-0.33,0.13,0.01,-12.46,8.05,16.24
-0.37,0.14,0.07,-6.93,13.3,7.07
-0.41,0.12,0.12,-2.94,19.25,-3.71
-0.44,0.09,0.13,0.77,25.62,-12.46
-0.47,0.08,0.13,5.81,35.49,-20.93
-0.49,0.06,0.14,14.98,45.08,-28.98
-0.52,0.04,0.16,23.31,53.83,-38.29
-0.66,-0.02,0.38,37.94,54.67,-44.17
-0.78,0.09,0.51,55.44,60.97,-33.95
-0.85,0.43,0.29,45.5,91.98,-35.84
-1.02,0.25,0.01,19.88,119,-45.71
-1.16,0.16,-0.27,21.56,126.84,-37.87
-1.4,0.36,-0.42,46.55,111.65,-13.65
-1.85,0.97,-0.33,58.31,92.19,15.05
-2.14,1.4,-0.28,58.45,80.64,8.54
-2.14,1.15,-0.41,21.98,42.91,-31.71
-1.62,0.52,-0.34,-25.06,23.31,-46.2
-1.03,0.02,-0.08,-35.77,37.1,-54.6
-0.77,-0.19,-0.07,-10.5,63.21,-69.37
-0.55,-0.35,-0.26,14.35,74.76,-87.71
-0.53,-0.46,-0.27,32.83,74.2,-92.19
-0.68,-0.37,-0.19,52.71,78.33,-78.89
-0.9,-0.13,-0.23,72.45,88.41,-56.63
-1.09,-0.02,-0.3,80.5,88.62,-45.71
-1.28,-0.02,-0.32,80.92,73.22,-44.31
-1.38,-0.04,-0.33,85.33,64.47,-47.18
-1.41,-0.03,-0.39,92.4,52.01,-52.08
-1.36,-0.01,-0.46,100.03,36.82,-55.79
-1.27,0.03,-0.46,106.96,21,-57.61
-1.16,0.13,-0.45,106.47,12.81,-60.13
-1.07,0.16,-0.44,97.51,12.88,-60.55
-0.99,0.18,-0.41,87.43,17.22,-59.99
-0.97,0.17,-0.39,78.68,18.83,-59.08
-0.95,0.17,-0.25,76.58,17.92,-58.94
-0.94,0.16,-0.38,77.56,15.96,-58.59
-0.92,0.17,-0.37,76.65,14.98,-59.01
-0.9,0.18,-0.37,71.26,15.19,-61.32
-0.91,0.17,-0.41,64.12,14.21,-64.26
-0.91,0.16,-0.41,58.1,14,-67.48
-0.94,0.13,-0.39,50.82,14.56,-68.95
-0.96,0.11,-0.35,45.57,15.47,-70.56
-0.97,0.05,-0.37,45.99,16.66,-71.54
-0.91,0,-0.38,51.94,16.1,-72.1
-0.86,-0.03,-0.36,64.96,15.82,-69.79
-0.82,0,-0.3,71.47,16.8,-68.6
-0.83,0.03,-0.29,71.05,19.18,-66.78
-0.82,0.07,-0.25,56.77,20.58,-67.34
-0.81,0.02,-0.22,52.85,24.99,-65.38
-0.82,0.07,-0.3,46.48,22.47,-63.42
-0.77,-0.03,-0.41,48.65,23.45,-59.36
-0.71,-0.01,-0.42,51.17,30.87,-56.7
-0.73,0.04,-0.39,46.55,34.93,-57.61
-0.81,0.07,-0.3,19.88,34.72,-60.34
-0.85,-0.02,-0.3,8.89,33.88,-63.91
-0.75,-0.02,-0.4,-57.75,-15.75,75.46
-0.8,0.07,-0.31,-52.64,-28.84,75.11
-0.78,0.06,-0.19,-54.53,-35.91,72.24
-0.76,0.05,-0.16,-63.7,-38.22,66.92
-0.71,-0.03,-0.18,-70,-35.49,62.58
-0.71,-0.07,-0.2,-73.78,-34.09,58.73
-0.7,-0.09,-0.23,-72.73,-31.36,54.95
-0.7,-0.09,-0.24,-71.33,-30.31,50.19
-0.71,-0.11,-0.24,-70.7,-27.93,44.45
-0.71,-0.13,-0.26,-69.3,-25.62,38.64
-0.7,-0.14,-0.24,-71.4,-25.2,31.99
-0.69,-0.19,-0.24,-68.6,-22.68,26.74
-0.65,-0.23,-0.23,-62.72,-17.99,21.77
-0.62,-0.27,-0.22,-55.79,-12.74,17.01
-0.57,-0.29,-0.2,-48.86,-7.42,10.71
-0.53,-0.27,-0.18,-40.88,-1.68,6.44
-0.5,-0.25,-0.18,-32.41,6.44,2.66
-0.5,-0.24,-0.16,-22.33,13.23,-0.91
-0.51,-0.23,-0.15,-15.05,19.46,-3.92
-0.54,-0.23,-0.13,-6.09,25.34,-6.23
-0.58,-0.22,-0.12,1.12,28.84,-8.54
-0.64,-0.21,-0.1,8.19,30.24,-10.99
-0.71,-0.18,-0.1,14.35,30.59,-15.75
-0.79,-0.15,-0.09,20.3,30.03,-19.6
-0.85,-0.1,-0.08,26.95,28.7,-22.26
-0.88,-0.02,-0.07,32.34,28.42,-23.87
-0.89,0.05,-0.06,35.98,29.4,-26.74
-0.92,0.11,-0.08,38.71,30.8,-29.89
-0.93,0.15,-0.1,40.53,32.06,-33.88
-0.93,0.19,-0.12,39.48,33.32,-36.12
-0.91,0.29,-0.15,40.81,35.35,-37.1
-0.89,0.33,-0.19,38.92,37.45,-34.93
-0.89,0.4,-0.22,35.49,38.43,-32.48
-0.89,0.53,-0.26,31.5,40.32,-25.97
-0.9,0.66,-0.3,21.91,44.31,-19.32
-1,0.73,-0.28,12.32,49.07,-12.53
-1.12,0.79,-0.24,2.87,54.18,-11.06
-1.33,0.77,-0.18,-4.69,51.73,-11.83
-1.47,0.74,-0.1,-9.1,39.06,-14.98
-1.57,0.75,-0.01,-13.23,21.84,-18.2
-1.61,0.77,0.08,-18.55,6.37,-20.72
-1.55,0.79,0.17,-25.41,-3.15,-22.89
-1.46,0.71,0.14,-33.11,-7.14,-26.25
-1.32,0.56,0.07,-38.99,-8.12,-31.64
-1.17,0.45,0,-46.48,-6.79,-39.97
-1.11,0.27,-0.11,-52.29,-4.2,-50.33
-1.07,0.08,-0.24,-49.35,-0.7,-57.54
-1.02,-0.11,-0.4,-41.37,1.26,-54.95
-0.95,-0.27,-0.46,-29.12,6.09,-22.05
-0.86,-0.32,-0.43,-16.24,12.39,-18.76
-0.84,-0.3,-0.4,-8.75,18.27,-12.25
-1.03,-0.21,-0.37,-6.51,19.39,-11.27
-1.18,-0.16,-0.31,-0.35,21.84,-12.74
-1.34,-0.1,-0.18,15.33,18.83,-13.93
-1.44,0.02,-0.11,36.19,13.86,-10.57
-1.38,0.12,-0.05,46.76,12.04,-7
-1.25,0.18,-0.03,46.06,12.67,-2.73
-1.08,0.14,-0.11,42.35,10.01,2.52
-0.82,0.02,-0.25,38.78,1.82,5.95
-0.64,-0.18,-0.43,42.07,-5.46,5.32
-0.45,-0.37,-0.53,50.96,-3.64,-0.98
-0.37,-0.45,-0.62,62.65,12.04,-6.51
-0.39,-0.51,-0.68,72.52,24.29,-9.66
-0.53,-0.54,-0.71,80.29,30.03,-13.16
-0.68,-0.45,-0.66,70.14,31.43,-18.97
-0.86,-0.36,-0.63,54.95,33.46,-21.21
-1,-0.28,-0.57,42.91,29.89,-21.77
-1.08,-0.22,-0.5,31.15,22.05,-22.19
-1.04,-0.16,-0.44,24.22,21.91,-23.59
-0.97,-0.1,-0.41,23.17,24.5,-24.99
-0.89,-0.02,-0.38,25.55,27.44,-24.57
-0.85,-0.02,-0.4,31.43,28.42,-23.17
-0.84,-0.07,-0.44,37.03,28.49,-22.68
-0.81,-0.14,-0.46,44.17,29.19,-21.91
-0.84,-0.19,-0.47,51.59,28.42,-21
-0.86,-0.24,-0.49,58.66,26.81,-19.32
-0.88,-0.27,-0.49,64.26,26.18,-17.29
-0.87,-0.27,-0.48,71.47,26.81,-15.68
-0.87,-0.27,-0.46,74.13,28.21,-14.63
-0.84,-0.25,-0.48,79.45,26.88,-14.28
-0.83,-0.22,-0.43,81.83,30.1,-15.12
-0.82,-0.17,-0.41,79.31,32.2,-13.79
-0.83,-0.14,-0.4,79.31,31.71,-11.41
-0.84,-0.11,-0.39,80.01,31.22,-8.75
-0.86,-0.08,-0.42,80.78,29.47,-5.53
-0.88,-0.07,-0.41,81.34,29.12,-3.99
-0.9,-0.05,-0.43,80.15,28.21,-2.66
-0.92,-0.08,-0.43,78.54,27.72,-1.96
-0.92,-0.08,-0.41,76.09,29.26,-2.1
-0.92,-0.11,-0.42,73.36,28.35,-2.38
-0.91,-0.11,-0.46,71.12,25.9,-2.66
-0.86,-0.15,-0.43,71.61,27.79,-2.03
-0.87,-0.15,-0.38,71.4,26.39,-1.4
-0.87,-0.16,-0.42,73.36,23.73,0.77
-0.87,-0.18,-0.44,76.23,24.92,2.38
-0.89,-0.19,-0.43,76.16,26.04,2.17
-0.89,-0.21,-0.43,73.85,26.25,0.28
-0.88,-0.22,-0.44,70.63,25.83,-2.38
-0.87,-0.23,-0.45,67.62,25.97,-5.95
-0.86,-0.26,-0.45,66.43,25.62,-10.43
-0.85,-0.27,-0.45,64.75,24.71,-13.09
-0.81,-0.26,-0.45,62.65,23.59,-14.14
-0.8,-0.25,-0.44,59.01,23.1,-14.28
-0.81,-0.23,-0.44,55.65,22.47,-13.51
-0.84,-0.23,-0.45,54.04,22.4,-12.67
-0.88,-0.22,-0.49,52.85,21.28,-13.37
-0.89,-0.23,-0.51,57.19,21.42,-14.42
-0.9,-0.22,-0.56,59.43,22.82,-15.12
-0.89,-0.2,-0.57,65.52,24.5,-15.54
-0.88,-0.17,-0.58,68.74,24.64,-14.98
-0.89,-0.15,-0.57,69.3,23.94,-14.7
-0.89,-0.13,-0.55,69.16,20.93,-13.79
-0.89,-0.12,-0.53,67.34,17.78,-12.6
-0.9,-0.11,-0.51,63.56,14.84,-10.15
-0.91,-0.11,-0.51,59.99,12.53,-8.4
-0.92,-0.13,-0.52,58.38,10.78,-6.37
-0.93,-0.16,-0.5,61.39,10.71,-4.2
-0.95,-0.19,-0.52,63.49,10.01,-2.38
-0.93,-0.23,-0.51,68.67,10.71,-1.05
-0.93,-0.24,-0.5,71.33,9.24,0.28
-0.95,-0.22,-0.49,68.25,8.26,2.52
-0.99,-0.22,-0.5,61.46,8.47,6.79
-1.02,-0.27,-0.52,56.28,5.18,11.41
-1.02,-0.32,-0.5,51.38,1.68,16.17
-1.01,-0.37,-0.44,48.09,-1.33,22.33
-1.01,-0.41,-0.35,46.69,-3.57,28.28
-1.01,-0.42,-0.18,52.5,-4.69,35.14
-1.03,-0.4,-0.08,63.84,-6.51,42.35
-1.04,-0.39,-0.07,78.96,-10.57,52.01
-1.05,-0.38,-0.14,89.11,-18.83,58.66
-1.02,-0.38,-0.26,92.19,-26.81,63.56
-0.99,-0.38,-0.3,87.36,-33.88,67.76
-0.95,-0.41,-0.31,78.82,-39.55,72.45
-0.91,-0.46,-0.31,74.62,-41.02,76.3
-0.88,-0.51,-0.31,73.5,-40.6,81.2
-0.86,-0.54,-0.31,71.89,-39.62,86.17
-0.85,-0.6,-0.3,72.1,-36.4,92.12
-0.85,-0.64,-0.3,75.53,-35.35,96.53
-0.84,-0.67,-0.32,78.33,-36.61,98.42
-0.82,-0.62,-0.36,82.04,-35.07,98.56
-0.83,-0.58,-0.41,77.42,-31.01,97.79
-0.85,-0.58,-0.39,80.15,-26.6,97.51
-0.83,-0.53,-0.38,83.09,-22.05,96.74
-0.89,-0.43,-0.45,87.99,-21.77,94.22
-0.93,-0.35,-0.45,80.57,-19.11,90.09
-0.95,-0.35,-0.39,77.28,-19.25,83.65
-0.97,-0.34,-0.38,80.99,-18.34,76.65
-0.94,-0.35,-0.35,80.85,-14.56,70.84
-0.95,-0.37,-0.29,83.02,-13.23,67.83
-0.92,-0.37,-0.25,84.28,-10.71,66.22
-0.9,-0.36,-0.22,79.66,-7.28,65.66
-0.9,-0.35,-0.23,74.69,-4.55,65.45
-0.89,-0.34,-0.25,69.51,-2.66,65.1
-0.89,-0.29,-0.3,61.95,-3.57,63.42
-0.88,-0.26,-0.32,55.44,-4.13,62.02
-0.88,-0.23,-0.32,54.18,-5.95,60.2
-0.89,-0.19,-0.35,51.87,-11.41,58.03
-0.87,-0.18,-0.34,48.3,-14.63,56.28
-0.86,-0.16,-0.33,42.84,-15.96,54.32
-0.86,-0.14,-0.3,38.43,-15.96,52.71
-0.87,-0.13,-0.28,34.65,-15.89,51.03
-0.88,-0.12,-0.26,32.55,-15.54,49.49
-0.89,-0.13,-0.26,31.08,-14.21,48.37
-0.89,-0.14,-0.25,30.38,-14.07,47.46
-0.9,-0.15,-0.25,30.59,-14.98,46.55
-0.91,-0.16,-0.25,29.96,-15.54,45.01
-0.92,-0.17,-0.24,29.68,-15.47,44.24
-0.93,-0.17,-0.21,29.96,-16.03,43.54
-0.93,-0.15,-0.19,29.26,-17.36,40.74
-0.94,-0.13,-0.17,27.72,-20.37,37.31
-0.93,-0.13,-0.16,28.42,-23.03,33.32
-0.95,-0.13,-0.14,26.88,-25.13,27.37
-0.87,-0.09,-0.15,26.18,-27.23,26.32
-0.85,-0.09,-0.17,29.82,-27.37,25.27
-0.86,-0.08,-0.16,25.34,-25.2,23.45
-0.88,-0.11,-0.17,24.22,-23.31,20.65
-0.91,-0.12,-0.16,24.64,-21.91,17.64
-0.9,-0.12,-0.16,26.11,-20.02,16.1
-0.89,-0.11,-0.15,27.02,-17.5,15.4
-0.87,-0.09,-0.16,28.7,-15.12,14.21
-0.86,-0.07,-0.16,32.2,-12.6,12.88
-0.86,-0.05,-0.17,33.6,-9.59,11.97
-0.85,-0.01,-0.17,33.6,-5.81,11.2
-0.85,0.04,-0.16,32.48,-2.1,9.45
-0.85,0.08,-0.18,29.89,0.91,8.26
-0.86,0.11,-0.19,26.46,5.32,8.12
-0.9,0.13,-0.19,23.38,7.63,10.78
-0.9,0.1,-0.15,23.17,11.27,12.04
-0.96,0.1,-0.13,24.15,14.07,16.17
-0.96,0.11,-0.07,25.83,19.6,18.69
-0.99,0.11,-0.06,26.46,24.29,17.92
-1.02,0.12,-0.07,23.03,23.17,15.26
-1.02,0.11,-0.06,20.09,19.74,13.93
-1,0.12,-0.06,20.09,15.26,13.16
-0.96,0.16,-0.09,19.81,12.39,12.18
-0.94,0.18,-0.1,19.11,10.36,10.57
-0.94,0.19,-0.11,14.42,8.89,7.91
-0.96,0.19,-0.1,10.5,6.09,4.76
-0.99,0.16,-0.06,7.56,4.48,-17.15
-1,0.16,-0.04,6.44,3.15,-4.62
-1.01,0.15,-0.06,5.04,0.35,-8.54
-0.99,0.13,-0.1,4.06,-2.52,-11.41
-0.98,0.1,-0.14,3.29,-5.74,-12.6
-0.96,0.04,-0.15,3.22,-7.63,-12.67
-0.95,-0.01,-0.12,4.76,-7.14,-12.67
-0.96,-0.02,-0.08,6.02,-4.97,-13.79
-0.96,-0.01,-0.07,7.91,-3.08,-15.47
-0.93,0.01,-0.08,8.26,-1.26,-18.27
-0.9,0.02,-0.1,7.7,1.26,-21.14
-0.86,0.01,-0.13,6.37,3.64,-24.15
-0.86,-0.02,-0.18,3.92,7.07,-27.79
-0.88,-0.15,-0.23,2.03,11.34,-32.34
-0.95,-0.22,-0.28,2.87,16.87,-33.67
-1.11,-0.21,-0.24,7.49,18.27,-28.84
-1.23,-0.15,-0.17,16.66,17.71,-23.87
-1.31,-0.1,-0.1,22.75,19.46,-18.55
-1.38,-0.11,-0.07,25.83,23.87,-17.36
-1.39,-0.11,-0.08,24.64,25.97,-17.71
-1.34,-0.09,-0.13,25.34,26.6,-15.96
-1.29,-0.07,-0.2,28.77,25.62,-10.64
-1.2,-0.03,-0.23,31.5,25.2,-5.88
-1.13,0.01,-0.26,31.78,24.92,-3.22
-1.05,0.02,-0.29,30.31,26.53,-2.8
-0.95,0,-0.32,29.19,29.54,-2.66
-0.85,-0.04,-0.32,32.55,31.29,-1.68
-0.76,-0.12,-0.31,35.98,32.55,-1.05
-0.69,-0.17,-0.32,40.32,35,-1.05
-0.68,-0.17,-0.31,42.42,36.82,-1.33
-0.73,-0.16,-0.32,43.12,37.1,-2.03
-0.8,-0.16,-0.33,43.96,36.82,-2.03
-0.86,-0.17,-0.34,45.85,37.17,-0.63
-0.91,-0.16,-0.37,47.95,36.05,1.47
-0.91,-0.18,-0.39,50.47,34.86,3.71
-0.91,-0.2,-0.39,51.73,35.07,7.28
-0.9,-0.21,-0.39,51.38,36.47,9.45
-0.91,-0.24,-0.4,52.43,36.26,10.64
-0.92,-0.27,-0.4,56.42,33.53,12.25
-0.93,-0.3,-0.39,62.51,29.96,18.55
-0.86,-0.29,-0.41,69.16,32.13,22.61
-0.84,-0.29,-0.46,74.48,34.65,23.73
-0.81,-0.26,-0.46,74.76,35.98,24.08
-0.82,-0.26,-0.47,73.92,36.96,23.24
-0.84,-0.24,-0.49,73.5,36.54,23.03
-0.83,-0.23,-0.48,76.09,35.28,23.59
-0.83,-0.2,-0.48,78.05,33.74,23.94
-0.82,-0.18,-0.49,79.1,32.62,24.08
-0.82,-0.16,-0.49,79.59,32.06,23.66
-0.85,-0.15,-0.48,79.66,30.31,23.59
-0.83,-0.12,-0.46,77.35,30.38,22.26
-0.82,-0.12,-0.46,73.5,31.64,20.09
-0.85,-0.13,-0.45,73.78,31.57,18.48
-0.87,-0.12,-0.44,74.62,28.14,17.29
-0.88,-0.13,-0.43,77.28,27.02,17.29
-0.89,-0.14,-0.43,80.15,26.53,18.34
-0.9,-0.15,-0.41,85.4,27.16,19.53
-0.91,-0.13,-0.4,92.19,27.23,21.56
-0.9,-0.12,-0.39,98.91,27.72,23.66
-0.89,-0.09,-0.4,99.19,27.93,25.9
-0.89,-0.07,-0.41,97.02,27.65,27.65
-0.87,-0.06,-0.44,95.97,27.09,28.91
-0.87,-0.08,-0.47,99.19,26.32,29.54
-0.88,-0.07,-0.48,98.98,23.24,28.84
-0.88,-0.1,-0.47,98.84,22.47,28.77
