Accel_x,Accel_y,Accel_z,Gyr_x,Gyr_y,Gyr_z
-0.66,-0.39,-0.02,-9.73,-19.6,13.72
-0.64,-0.36,-0.01,-2.45,-13.44,11.27
-0.63,-0.33,-0.02,2.03,-7,8.96
-0.63,-0.29,-0.03,6.79,-1.47,7.14
-0.61,-0.27,-0.04,9.66,3.5,3.36
-0.58,-0.28,-0.05,12.11,10.85,-0.49
-0.56,-0.27,-0.05,14.56,16.45,-6.09
-0.52,-0.28,-0.08,19.32,23.8,-12.11
-0.5,-0.27,-0.1,25.06,28.56,-16.66
-0.5,-0.25,-0.11,32.48,31.43,-20.51
-0.47,-0.37,-0.09,39.62,34.58,-27.37
-0.44,-0.26,-0.07,45.22,39.48,-32.9
-0.42,-0.25,-0.07,50.4,45.85,-35.98
-0.44,-0.18,-0.09,57.05,48.93,-38.78
-0.48,-0.1,-0.08,61.32,46.62,-43.61
-0.55,-0.03,-0.06,57.19,39.97,-51.38
-0.6,0.05,-0.05,48.65,34.58,-56.77
-0.63,0.14,-0.05,37.73,30.94,-60.2
-0.7,0.19,-0.09,35.42,28,-60.97
-0.74,0.2,-0.1,33.39,28.07,-61.46
-0.83,0.18,-0.12,30.45,27.79,-59.5
-0.94,0.19,-0.12,26.18,27.65,-57.54
-1.01,0.19,-0.13,21.77,31.5,-54.81
-1.09,0.19,-0.15,19.32,37.24,-53.34
-1.11,0.22,-0.16,18.41,37.17,-56.28
-1.14,0.21,-0.13,22.96,29.26,-62.23
-1.02,0.31,-0.04,25.9,18.83,-67.06
-0.93,0.36,-0.02,24.29,13.16,-69.79
-0.86,0.36,0.01,19.88,6.86,-71.33
-0.83,0.37,0.02,8.19,-0.35,-71.96
-0.85,0.37,0,-7.07,-6.65,-68.32
-0.9,0.29,0.05,-22.26,-1.82,-64.82
-1.04,0.16,0.1,-32.13,9.87,-60.83
-1.11,0.06,0.17,-31.15,18.62,-56.56
-1.2,-0.04,0.26,-18.62,26.18,-51.59
-1.27,-0.09,0.49,-3.78,34.16,-42.56
-1.35,0.03,0.53,2.38,43.89,-20.37
-1.62,0.01,0.44,2.31,57.82,15.75
-1.9,-0.19,0.26,11.62,63.77,36.89
-1.92,-0.3,-0.21,29.12,57.19,44.45
-1.47,-0.4,-0.95,47.6,1.68,35.35
-1.08,-0.41,-1.08,70.42,-35.49,32.48
-1,-0.26,-0.36,57.4,-27.79,35.21
-1.1,-0.14,-0.13,56.14,8.89,54.39
-1.05,0.13,-0.44,82.25,21.91,78.47
-0.91,0.14,-1.03,80.08,-3.85,77.91
-0.73,0.16,-1.24,56.49,-5.46,61.88
-1.13,0.07,-1.21,7.91,13.16,27.16
-1.56,0.17,-0.7,-20.51,16.24,4.9
-2.01,0.27,-0.37,-31.85,13.72,-0.77
-2.2,0.41,-0.17,-20.79,15.33,-3.22
-1.95,0.3,-0.28,-18.62,1.96,-15.33
-1.32,0.01,-0.62,-16.8,-32.76,-22.82
-0.83,-0.26,-0.89,-5.46,-36.54,-26.74
-0.51,-0.52,-0.99,-2.66,-25.62,-34.58
-0.43,-0.75,-0.92,-15.54,-6.44,-45.15
-0.48,-0.89,-0.64,-31.29,22.4,-56
-0.69,-0.89,-0.4,-31.78,40.95,-55.16
-0.91,-0.77,-0.31,-5.11,41.65,-47.39
-1,-0.56,-0.35,26.67,39.41,-40.95
-0.99,-0.35,-0.39,45.71,36.12,-38.08
-0.95,-0.2,-0.38,45.01,34.86,-38.22
-1.01,-0.06,-0.26,33.04,34.79,-40.18
-1.11,0.05,-0.13,19.11,34.86,-42.42
-1.2,0.16,-0.02,11.76,31.78,-42.7
-1.22,0.21,0.01,8.89,23.8,-41.72
-1.14,0.19,-0.03,7.07,6.51,-42.98
-0.96,0.08,-0.14,7.84,-3.5,-45.08
-0.81,0.01,-0.22,6.3,-6.09,-45.43
-0.72,-0.02,-0.26,0.49,-3.92,-45.78
-0.7,-0.03,-0.24,-5.74,1.68,-44.45
-0.75,-0.03,-0.21,-9.03,7.07,-42.42
-0.81,-0.01,-0.2,-7.14,7.42,-39.76
-0.86,0.03,-0.19,-4.48,4.76,-37.03
-0.87,0.09,-0.19,-5.53,0.84,-34.16
-0.87,0.14,-0.18,-8.68,-3.71,-31.78
-0.84,0.21,-0.13,-14.98,-7.49,-30.73
-0.82,0.27,-0.08,-21.49,-10.43,-30.59
-0.78,0.29,-0.05,-26.39,-14.7,-29.4
-0.76,0.25,-0.06,-29.54,-20.93,-28.07
-0.82,0.2,-0.07,-32.27,-23.66,-25.41
-0.96,0.18,-0.06,-34.3,-22.54,-20.86
-1.1,0.18,-0.01,-34.58,-20.37,-17.01
-1.18,0.17,-0.02,-34.02,-22.89,-14.98
-1.11,0.13,-0.11,-33.46,-31.15,-16.38
-0.91,0.09,-0.25,-36.47,-44.38,-20.65
-0.67,0.05,-0.34,-39.97,-48.86,-23.38
-0.58,0.05,-0.31,-43.96,-44.45,-23.87
-0.53,0.02,-0.24,-43.75,-34.37,-22.33
-0.57,0.01,-0.17,-43.26,-26.81,-21.7
-0.6,-0.03,-0.27,-40.11,-27.44,-23.31
-0.59,-0.1,-0.4,-40.04,-29.33,-28.42
-0.64,-0.16,-0.48,-41.51,-24.29,-33.11
-0.79,-0.19,-0.49,-41.65,-15.75,-35.07
-0.93,-0.17,-0.44,-33.53,-7.91,-31.71
-1.02,-0.06,-0.43,-26.67,-7.77,-26.88
-1.01,0.02,-0.36,-25.13,-9.8,-25.06
-0.95,0.07,-0.34,-26.95,-13.02,-25.97
-0.88,0.04,-0.36,-27.3,-19.11,-25.9
-0.91,0.04,-0.35,-22.96,-21,-27.86
-0.97,0.05,-0.37,-18.9,-23.8,-32.55
-1.03,0.04,-0.36,-19.32,-25.41,-39.48
-1.11,0.07,-0.3,-22.33,-23.66,-46.34
-1.22,0.14,-0.31,-27.79,-26.46,-51.59
-1.32,0.31,-0.41,-38.64,-39.76,-51.73
-1.39,0.41,-0.47,-57.26,-71.47,-45.57
-1.46,0.47,-0.46,-77.28,-59.57,-34.51
-1.51,0.47,-0.46,-92.89,-61.39,-18.55
-1.52,0.47,-0.48,-97.93,-69.02,3.36
-1.52,0.42,-0.49,-103.53,-81.48,28.63
-1.65,0.23,-0.61,-104.3,-93.31,57.33
-1.66,-0.06,-0.75,-98.21,-99.68,81.55
-1.54,-0.43,-0.89,-86.59,-94.36,108.99
-1.46,-0.76,-1.02,-60.13,-77.42,136.85
-1.32,-1.02,-1,-18.83,-48.3,163.38
-1.2,-0.86,-0.83,-7.56,-18.13,170.73
-0.81,-0.5,-0.65,-10.15,44.8,174.16
-0.9,-0.16,-0.36,-43.26,29.82,137.55
-0.82,0.09,-0.49,-52.92,29.26,118.65
-0.79,0.13,-0.38,-71.33,6.51,94.71
-1.03,0.18,-0.36,-100.87,-4.34,72.94
-0.93,0.03,-0.24,-86.31,-1.47,60.48
-1.17,0.08,-0.23,-93.03,-8.61,56.91
-1.27,0.03,-0.36,-95.48,-8.61,60.62
-1.27,-0.13,-0.45,-96.39,-7.14,60.55
-1.21,-0.23,-0.43,-102.48,-9.73,54.46
-1.05,-0.29,-0.36,-109.9,-15.54,46.83
-0.88,-0.34,-0.26,-110.11,-12.25,40.95
-0.77,-0.36,-0.19,-110.53,-7.7,36.26
-0.7,-0.36,-0.17,-114.03,-3.08,32.2
-0.62,-0.37,-0.13,-115.99,3.99,28
-0.6,-0.35,-0.18,-119.49,9.45,19.39
-0.57,-0.36,-0.22,-121.03,14.77,10.99
-0.55,-0.35,-0.25,-122.01,16.73,0.63
-0.54,-0.34,-0.27,-117.88,17.22,-9.31
-0.55,-0.34,-0.27,-111.65,14.7,-16.38
-0.56,-0.34,-0.26,-105.56,14.7,-21.49
-0.59,-0.36,-0.23,-97.93,16.52,-26.46
-0.63,-0.39,-0.18,-90.23,17.08,-30.24
-0.69,-0.39,-0.14,-82.04,16.94,-33.18
-0.69,-0.38,-0.09,-75.39,16.87,-33.32
-0.79,-0.38,-0.04,-64.75,16.24,-31.57
-0.88,-0.34,0.03,-58.17,15.61,-27.51
-0.94,-0.25,0.05,-56.49,15.61,-23.8
-1.03,-0.07,0.02,-59.22,19.39,-20.72
-1.13,0.1,0.04,-60.13,20.79,-20.23
-1.21,0.3,0.05,-56.77,21.28,-21
-1.3,0.45,0.07,-51.66,17.57,-18.34
-1.32,0.54,0.11,-47.67,14.77,-13.16
-1.21,0.67,0.03,-44.59,24.43,-11.83
-1.17,0.68,-0.08,-44.31,32.2,-13.65
-1.18,0.72,-0.12,-43.05,28.49,-10.5
-1.19,0.77,-0.13,-39.41,18.83,-1.89
-1.21,0.8,-0.11,-41.16,13.44,5.81
-1.2,0.79,-0.12,-50.61,12.32,8.61
-1.18,0.71,-0.18,-62.93,11.76,5.88
-1.11,0.61,-0.23,-75.46,11.69,0.21
-1.02,0.48,-0.24,-85.33,11.34,-9.66
-0.91,0.28,-0.25,-90.3,13.09,-18.9
-0.8,0.11,-0.28,-89.53,17.85,-27.65
-0.74,-0.04,-0.33,-83.79,23.03,-38.43
-0.85,-0.2,-0.38,-76.86,25.06,-50.61
-1.16,-0.35,-0.33,-77,22.19,-54.95
-1.47,-0.33,-0.05,-75.88,7.7,-43.75
-1.55,-0.16,0.11,-60.97,-2.59,-25.76
-1.64,-0.01,0.23,-37.03,-4.13,-21.42
-1.84,0.08,0.3,-20.86,3.78,-24.85
-1.91,-0.02,0.14,-17.57,11.34,-27.16
-1.74,-0.27,-0.11,-13.58,3.22,-18.27
-1.07,-0.53,-0.47,2.73,-45.43,3.5
-0.19,-0.57,-0.63,14.98,-74.69,-17.01
0.02,-0.59,-0.7,26.32,-66.22,-15.75
0.08,-0.69,-0.64,36.54,-32.41,-28.77
-0.07,-0.75,-0.64,50.54,-7.84,-42.07
-0.21,-0.78,-0.77,79.03,15.96,-51.52
-0.43,-0.5,-0.91,56.07,39.69,-57.89
-0.72,-0.23,-0.85,2.94,52.43,-68.04
-1.08,-0.07,-0.81,-39.41,42.84,-81.41
-1.34,0.04,-0.74,-53.27,27.09,-81.97
-1.36,0.09,-0.61,-50.54,8.54,-82.67
-1.27,0.18,-0.44,-41.09,1.82,-86.31
-1.15,0.3,-0.3,-34.16,3.43,-90.23
-1,0.27,-0.27,-28.14,10.01,-90.02
-0.89,0.12,-0.38,-14.42,13.72,-82.18
-0.8,-0.1,-0.51,0.21,13.16,-66.36
-0.73,-0.26,-0.59,15.82,13.58,-58.59
-0.77,-0.38,-0.56,25.97,18.9,-55.65
-0.83,-0.39,-0.43,23.94,22.75,-57.4
-0.83,-0.45,-0.36,18.41,26.46,-60.62
-0.86,-0.46,-0.29,11.2,31.01,-65.38
-0.83,-0.49,-0.15,14.91,37.38,-67.9
-0.88,-0.4,-0.19,10.29,32.76,-72.45
-0.89,-0.33,-0.23,5.32,23.94,-73.36
-0.91,-0.23,-0.25,-1.75,18.13,-75.53
-0.94,-0.14,-0.24,-7.07,20.44,-76.65
-0.95,-0.06,-0.23,-12.32,22.12,-76.72
-0.95,-0.01,-0.23,-16.8,22.61,-76.72
-0.95,0.04,-0.24,-17.71,21.98,-75.46
-0.94,0.05,-0.27,-20.02,19.74,-75.6
-0.92,0.04,-0.32,-24.22,17.64,-75.81
-0.91,-0.02,-0.36,-29.82,15.61,-75.11
-0.9,-0.1,-0.37,-34.3,13.93,-73.43
-0.91,-0.14,-0.4,-35.91,12.81,-72.38
-0.89,-0.19,-0.39,-36.89,13.3,-70.7
-0.88,-0.23,-0.36,-37.8,14.07,-69.37
-0.88,-0.23,-0.34,-38.36,14.7,-68.6
-0.9,-0.21,-0.31,-38.99,14.49,-68.81
-0.92,-0.19,-0.29,-38.36,13.86,-68.39
-0.94,-0.17,-0.28,-34.3,12.25,-67.69
-0.95,-0.17,-0.29,-30.1,10.08,-67.9
-0.94,-0.16,-0.31,-29.61,7.49,-68.95
-0.91,-0.18,-0.33,-29.68,6.72,-69.93
-0.88,-0.2,-0.37,-30.8,5.67,-71.4
-0.87,-0.2,-0.41,-33.81,4.2,-72.8
-0.86,-0.19,-0.45,-41.3,3.99,-74.83
-0.88,-0.25,-0.44,-38.43,6.51,-73.29
-0.88,-0.27,-0.43,-36.26,10.08,-71.4
-0.91,-0.27,-0.44,-35.07,9.94,-68.67
-0.92,-0.29,-0.42,-33.74,7.7,-66.29
-0.93,-0.29,-0.39,-33.11,5.46,-62.44
-0.95,-0.31,-0.37,-37.73,7.07,-56.42
-0.93,-0.32,-0.27,-42.7,15.4,-44.24
-1.06,-0.5,-0.28,-31.08,21.91,-37.31
-1.04,-0.55,-0.18,-17.08,15.12,-36.26
-1,-0.39,-0.19,-4.27,0.63,-28.7
-0.98,-0.45,-0.27,12.11,-11.27,-23.24
-0.97,-0.37,-0.37,24.29,-13.51,-20.3
-1.01,-0.26,-0.45,29.89,-11.34,-18.34
-1.07,-0.14,-0.48,29.82,-12.95,-15.68
-1.12,-0.04,-0.51,25.9,-15.47,-14.63
-1.18,0.05,-0.45,18.69,-19.46,-15.82
-1.25,0.13,-0.37,10.71,-27.72,-15.26
-1.32,0.2,-0.3,3.99,-39.97,-11.76
-1.41,0.23,-0.24,-3.5,-51.31,-7.35
-1.5,0.22,-0.18,-12.04,-64.61,-4.27
-1.54,0.14,-0.11,-12.88,-82.81,2.17
-1.5,0.04,-0.06,-13.3,-105.14,11.2
-1.34,-0.01,-0.19,-20.09,-118.23,24.85
-1.19,-0.08,-0.34,-27.37,-123.69,39.06
-0.93,-0.14,-0.42,-33.95,-112.7,55.51
-0.81,-0.18,-0.47,-38.85,-103.81,69.93
-0.83,-0.15,-0.52,-46.2,-97.51,77.63
-0.89,-0.17,-0.61,-48.86,-100.66,84.7
-0.91,-0.13,-0.65,-57.54,-101.36,90.93
-0.94,-0.15,-0.69,-62.79,-98.98,96.88
-1,-0.21,-0.71,-71.61,-97.58,100.52
-1.02,-0.24,-0.73,-82.39,-88.9,103.53
-1.05,-0.26,-0.71,-95.97,-80.15,104.23
-1.1,-0.34,-0.68,-109.13,-69.93,97.16
-1.1,-0.41,-0.61,-112.7,-67.97,89.18
-1.05,-0.49,-0.65,-104.93,-67.55,88.9
-0.97,-0.43,-0.67,-100.8,-59.99,96.74
-0.94,-0.47,-0.73,-97.23,-48.09,101.15
-0.92,-0.52,-0.76,-82.53,-34.02,105.56
-0.9,-0.44,-0.75,-65.24,-25.55,108.15
-0.85,-0.36,-0.7,-66.71,-21.42,107.66
-0.91,-0.26,-0.55,-71.12,-18.48,105.7
-0.81,-0.23,-0.49,-68.25,-11.83,100.66
-0.91,-0.15,-0.44,-75.88,-19.95,93.73
-0.85,-0.13,-0.47,-80.85,-21.14,86.31
-0.77,-0.17,-0.5,-84.7,-15.96,80.29
-0.73,-0.21,-0.48,-87.99,-9.17,75.39
-0.71,-0.21,-0.48,-94.57,-6.65,69.3
-0.69,-0.22,-0.47,-103.25,-7.07,57.96
-0.7,-0.2,-0.5,-112.84,-5.32,47.25
-0.68,-0.16,-0.51,-129.22,-2.1,38.29
-0.64,-0.18,-0.54,-135.94,3.92,30.24
-0.62,-0.18,-0.54,-137.97,6.09,22.54
-0.62,-0.22,-0.49,-136.15,4.2,14.77
-0.6,-0.25,-0.45,-134.89,2.66,7.77
-0.59,-0.3,-0.42,-133.91,3.29,1.82
-0.59,-0.36,-0.39,-131.46,4.48,-4.13
-0.59,-0.4,-0.34,-127.96,6.44,-7.63
-0.64,-0.42,-0.31,-125.3,6.16,-10.01
-0.67,-0.42,-0.26,-120.26,6.16,-11.97
-0.72,-0.4,-0.21,-117.88,7.7,-13.93
-0.77,-0.36,-0.19,-115.5,10.99,-15.33
-0.83,-0.31,-0.16,-113.61,15.05,-34.93
-0.9,-0.25,-0.16,-108.36,18.76,-21.21
-0.93,-0.19,-0.14,-101.85,20.86,-19.81
-0.99,-0.14,-0.11,-91.56,19.67,-19.11
-1.02,-0.1,-0.07,-78.89,15.89,-19.39
-1.04,-0.06,-0.03,-70.35,13.37,-18.62
-0.98,-0.02,-0.07,-65.24,16.45,-18.55
-1,0.02,-0.05,-61.32,16.24,-19.04
-1.01,0.1,-0.04,-60.55,17.99,-17.29
-1.04,0.21,-0.07,-57.4,25.13,-7.42
-1.1,0.38,-0.05,-55.58,27.16,5.95
-1.15,0.59,-0.08,-55.65,26.6,20.44
-1.2,0.82,-0.14,-60.76,26.95,35.56
-1.22,0.99,-0.25,-63.98,27.72,46.9
-1.23,1.03,-0.29,-64.68,26.25,46.62
-1.26,0.95,-0.31,-77,19.74,36.75
-1.21,0.78,-0.29,-93.59,10.57,22.61
-1.08,0.57,-0.3,-114.52,5.11,6.02
-0.93,0.34,-0.33,-123.9,3.5,-9.03
-0.79,0.15,-0.33,-128.59,6.23,-21.35
-0.72,-0.03,-0.32,-128.31,11.62,-32.34
-0.63,-0.22,-0.36,-124.46,19.88,-44.24
-0.62,-0.34,-0.38,-116.62,30.03,-49.21
-0.65,-0.36,-0.42,-105.91,37.94,-51.31
-0.78,-0.35,-0.39,-95.41,42.56,-51.87
-1.05,-0.33,-0.28,-90.58,41.3,-51.59
-1.4,-0.23,-0.09,-85.26,29.89,-48.44
-1.66,-0.11,0.04,-73.85,18.83,-43.19
-1.8,0,0.23,-52.57,6.23,-43.75
-1.99,0.16,0.3,-38.99,6.09,-42.98
-2.14,0.08,0.18,-43.12,15.75,-39.62
-1.95,-0.22,0.05,-24.5,10.64,-22.12
-1.28,-0.49,-0.37,10.22,-38.57,8.68
-0.44,-0.64,-0.49,25.13,-75.95,14.84
-0.12,-0.62,-0.61,40.32,-76.02,8.82
0.08,-0.58,-0.76,32.34,-49.7,-14.91
0.2,-0.67,-0.83,13.58,-4.9,-43.61
0.08,-0.59,-0.94,15.61,26.6,-56.35
-0.18,-0.42,-1.1,-11.27,53.41,-59.71
-0.61,-0.22,-1.01,-36.75,51.31,-63.7
-0.96,-0.14,-0.89,-45.36,39.06,-60.97
-1.19,-0.03,-0.75,-44.66,27.02,-60.48
-1.31,0.05,-0.55,-36.82,18.9,-62.65
-1.37,0.17,-0.34,-28.07,13.44,-68.25
-1.28,0.3,-0.21,-33.53,14.49,-72.94
-1.17,0.24,-0.22,-27.44,14.56,-72.38
-1.04,0.09,-0.37,-19.39,12.18,-72.17
-0.85,-0.1,-0.51,1.33,14.63,-66.85
-0.77,-0.35,-0.62,33.6,17.78,-62.09
-0.78,-0.34,-0.68,47.46,19.11,-60.55
-0.8,-0.34,-0.65,31.64,17.01,-63.91
-0.74,-0.37,-0.46,13.65,23.52,-69.44
-0.77,-0.45,-0.31,7.77,25.41,-71.61
-0.8,-0.46,-0.2,6.51,27.02,-73.15
-0.83,-0.34,-0.18,-5.25,26.88,-78.05
-0.87,-0.35,-0.25,-9.1,24.78,-81.69
-0.91,-0.24,-0.33,-10.64,20.51,-84.07
-0.89,-0.19,-0.35,-15.4,17.92,-85.61
-0.87,-0.13,-0.34,-16.8,19.39,-85.89
-0.89,-0.06,-0.33,-19.18,21.63,-85.75
-0.88,-0.04,-0.33,-25.13,21,-85.68
-0.87,-0.07,-0.34,-30.59,20.51,-85.12
-0.87,-0.1,-0.33,-32.2,20.65,-83.58
-0.87,-0.14,-0.33,-31.29,21.42,-81.76
-0.87,-0.16,-0.34,-32.48,21,-80.43
-0.89,-0.2,-0.34,-35.7,20.44,-79.87
-0.89,-0.22,-0.34,-39.27,19.04,-80.15
-0.9,-0.21,-0.34,-42.77,16.66,-79.8
-0.91,-0.18,-0.34,-46.27,15.12,-79.1
-0.93,-0.15,-0.35,-47.25,14.07,-77.98
-0.95,-0.13,-0.35,-44.17,14.63,-77
-0.97,-0.11,-0.38,-39.55,13.86,-76.72
-0.98,-0.08,-0.39,-38.57,12.6,-78.12
-0.98,-0.04,-0.4,-40.6,11.55,-79.87
-0.98,-0.01,-0.39,-44.66,10.29,-80.29
-1,0.08,-0.37,-51.8,7.49,-78.89
-1.01,0.13,-0.31,-56.49,6.23,-74.06
-1.03,0.15,-0.19,-59.57,6.23,-65.73
-1.06,0.12,-0.13,-64.12,8.33,-52.08
-1.16,0.07,-0.09,-69.02,10.08,-37.38
-1.21,-0.06,-0.14,-67.13,10.78,-26.32
-1.26,-0.16,-0.11,-55.72,1.4,-20.58
-1.27,-0.26,-0.08,-46.06,-9.8,-14.98
-1.25,-0.28,-0.02,-33.6,-19.6,-8.68
-1.25,-0.22,0.01,-23.66,-28.77,16.45
-1.26,-0.05,0.01,-14.91,-38.01,9.94
-1.27,0.03,-0.07,-8.75,-46.13,17.85
-1.32,0.12,0.01,7,-65.45,31.5
-1.37,0.21,0.02,22.12,-84.84,45.78
-1.48,0.31,-0.07,25.34,-98.42,58.03
-1.6,0.42,-0.25,13.72,-110.46,69.58
-1.7,0.51,-0.32,-12.95,-129.43,77.98
-1.68,0.44,-0.36,-47.67,-139.93,81.48
-1.57,0.2,-0.42,-77.91,-148.75,83.93
-1.28,-0.05,-0.48,-95.27,-145.39,86.87
-1.21,-0.2,-0.54,-109.97,-137.9,94.5
-1.18,-0.45,-0.67,-113.89,-116.69,100.94
-1.28,-0.62,-0.9,-116.62,-103.32,106.4
-1.3,-0.94,-1.12,-110.95,-101.36,115.64
-1.2,-1.05,-1.4,-90.44,-105.98,120.19
-0.93,-0.93,-1.54,-44.94,-84.28,123.97
-0.84,-0.59,-1.39,-22.05,-73.22,124.39
-0.8,-0.26,-1.07,-27.09,-69.37,119.77
-0.87,-0.16,-0.73,-30.52,-70.28,116.41
-0.92,-0.13,-0.55,-26.74,-72.17,119.49
-0.95,-0.15,-0.39,-29.33,-70.98,121.8
-0.94,-0.17,-0.3,-34.44,-62.51,120.75
-0.91,-0.17,-0.28,-44.17,-42.07,119.42
-1.12,-0.11,-0.35,-68.18,-37.73,116.13
-0.87,-0.2,-0.34,-84.77,-28.49,105.91
-0.81,-0.23,-0.43,-91.7,-27.16,94.08
-0.73,-0.28,-0.45,-89.11,-26.32,80.71
-0.66,-0.33,-0.44,-81.48,-28.56,72.8
-0.62,-0.34,-0.41,-76.09,-25.97,68.04
-0.62,-0.33,-0.36,-70.21,-24.78,63.42
-0.63,-0.33,-0.3,-63.7,-23.87,57.54
-0.62,-0.31,-0.22,-59.36,-19.95,51.8
-0.61,-0.3,-0.17,-57.96,-14.63,44.66
-0.59,-0.29,-0.15,-57.05,-7.77,34.09
-0.57,-0.3,-0.15,-58.38,-0.77,24.78
-0.52,-0.32,-0.16,-58.45,5.04,15.26
-0.48,-0.33,-0.14,-55.44,9.45,7.28
-0.43,-0.33,-0.11,-50.54,14.98,0.56
-0.41,-0.32,-0.09,-45.01,22.54,-6.09
-0.41,-0.3,-0.08,-38.01,30.03,-11.9
-0.43,-0.26,-0.08,-32.13,35.63,-19.46
-0.47,-0.21,-0.07,-28.21,39.41,-26.53
-0.55,-0.14,-0.06,-26.6,38.5,-32.69
-0.62,-0.08,-0.05,-25.27,35.84,-39.69
-0.66,-0.02,-0.06,-25.27,31.22,-44.8
-0.68,0,-0.05,-24.22,27.65,-48.16
-0.66,-0.01,-0.05,-21.14,25.55,-50.89
-0.63,-0.06,-0.05,-15.33,24.57,-50.33
-0.62,-0.09,-0.05,-7.07,24.22,-47.67
-0.62,-0.12,-0.05,2.1,23.31,-43.33
-0.64,-0.13,-0.04,16.03,21.14,-38.85
-0.66,-0.12,-0.02,24.64,21.42,-35.56
-0.69,-0.09,0.02,29.47,21.84,-34.23
-0.74,-0.03,0.06,28.49,20.86,-35.28
-0.79,0.07,0.07,23.52,19.53,-37.73
-0.82,0.17,0.04,19.25,13.72,-44.31
-0.83,0.27,-0.03,14.84,9.03,-52.85
-0.86,0.35,-0.12,8.75,3.92,-60.06
-0.89,0.39,-0.23,6.16,1.61,-61.74
-0.92,0.4,-0.3,5.39,1.82,-59.43
-1.01,0.38,-0.27,1.05,0.7,-48.65
-1.05,0.3,-0.27,-2.31,12.46,-40.04
-1.09,0.18,-0.14,-15.19,14.7,-39.48
-1.1,0.1,-0.02,-24.15,11.2,-42.63
-1.06,0.06,0.07,-26.18,7.21,-46.13
-1,0.03,0.11,-17.85,10.43,-44.38
-0.93,0.02,0.09,-10.64,13.44,-39.76
-0.89,-0.02,0.05,-5.6,15.75,-36.12
-0.9,-0.08,0,-5.11,17.92,-34.23
-0.9,-0.12,-0.05,-6.23,20.79,-35.91
-0.94,-0.16,-0.08,-8.54,26.11,-37.59
-0.93,-0.15,-0.1,-10.22,32.27,-40.25
-0.98,-0.15,-0.05,-9.03,40.46,-40.95
-1.08,0.12,0.08,-8.47,52.15,-23.45
-1.38,-0.01,0.07,-7.91,68.95,-12.39
-1.96,-0.09,-0.11,-12.95,74.9,-11.48
-2.18,-0.16,-0.45,13.44,66.5,-20.86
-1.84,-0.15,-0.96,17.99,29.82,-27.3
-1.06,-0.1,-1.25,19.18,-6.44,-23.66
-0.52,-0.18,-1.23,23.17,3.22,-0.7
-1.27,-0.11,-0.89,-6.37,33.11,30.59
-2.7,-0.12,-0.47,-41.51,33.88,58.94
-3.9,0.51,0.23,-31.43,34.86,71.96
-3,1.92,1.28,28,65.87,40.39
-1.51,0.93,0.42,-80.36,-35.77,2.59
-0.71,-0.18,-1.36,-24.08,-94.43,2.66
0.12,-0.75,-2.08,88.41,-128.03,21.98
0.81,-1.19,-1.97,206.22,-93.45,19.74
0.34,-1.38,-1.45,180.53,-36.54,-31.08
0.07,-1.29,-0.54,12.32,59.15,-69.23
-0.34,-1.45,0.23,-111.02,129.43,-53.48
-1.26,-1.41,0.22,-72.87,136.71,-45.78
-1.54,-0.95,0.03,-1.26,111.09,-41.51
-1.78,-0.28,-0.13,35.49,56.7,-40.18
-1.65,0.1,-0.13,46.41,16.38,-35.14
-1.44,0.38,-0.19,44.59,-1.54,-28.84
-1.28,0.61,-0.23,42.84,-11.62,-30.8
-0.96,0.69,-0.25,33.6,-7.42,-34.86
-0.7,0.57,-0.26,19.32,5.74,-35.49
-0.61,0.36,-0.26,11.2,7.28,-32.62
-0.58,0.12,-0.3,3.5,5.53,-31.43
-0.59,0,-0.28,-4.69,9.24,-32.69
-0.65,-0.06,-0.22,-11.34,15.05,-33.74
-0.69,-0.06,-0.15,-16.8,14.98,-32.13
-0.76,0.01,-0.1,-18.97,11.55,-27.51
-0.87,0.15,-0.08,-23.45,10.01,-21.14
-1.02,0.28,-0.08,-32.41,9.8,-13.86
-1.19,0.39,-0.1,-44.17,4.62,-7.49
-1.26,0.42,-0.17,-53.41,-7.56,-6.37
-1.19,0.4,-0.24,-56.56,-18.69,-10.57
-1,0.34,-0.27,-56.28,-28.56,-15.12
-0.87,0.27,-0.23,-57.12,-34.51,-17.01
-0.77,0.19,-0.12,-53.48,-39.13,-14.42
-0.69,0.14,0.01,-49.77,-37.52,-7
-0.67,0.07,0.09,-49.28,-33.39,-1.89
-0.66,-0.01,0.09,-51.38,-30.52,1.12
-0.65,-0.08,0,-52.43,-30.1,4.97
-0.67,-0.12,-0.13,-45.99,-30.52,12.81
-0.73,-0.12,-0.21,-38.29,-27.23,21.84
-0.73,-0.07,-0.3,-33.39,-28.63,27.09
-0.67,-0.16,-0.35,-23.66,-28.63,30.94
-0.6,-0.19,-0.35,-12.88,-27.09,31.43
-0.56,-0.21,-0.35,-9.17,-24.57,28.21
-0.55,-0.24,-0.35,-7.84,-24.99,24.78
-0.55,-0.31,-0.3,2.31,-21.42,24.36
-0.6,-0.3,-0.2,10.92,-12.67,24.78
-0.66,-0.26,-0.22,17.85,-5.39,24.36
-0.74,-0.2,-0.22,17.36,-0.28,21
-0.8,-0.17,-0.27,10.57,-0.28,18.48
-0.87,-0.13,-0.33,10.01,-2.52,19.18
-0.9,0.02,-0.32,3.5,2.03,22.82
-0.97,0.22,-0.24,-3.08,9.1,32.34
-1.1,0.47,-0.18,-9.87,10.29,45.36
-1.39,0.78,-0.22,-23.1,-4.41,65.17
-1.75,1.06,-0.34,-38.43,-19.6,81.13
-2.47,1.13,-0.47,-50.96,-45.78,94.36
-2.8,0.89,-0.76,-39.27,-75.74,106.05
-2.72,0.65,-0.8,-33.46,-100.73,103.6
-2.26,0.24,-0.56,-56.42,-105,96.53
-1.92,-0.27,-0.63,-63.56,-111.3,97.09
-1.6,-0.46,-0.78,-79.45,-116.55,92.89
-1.46,-0.53,-0.89,-73.85,-91.35,96.6
-1.42,-0.68,-0.8,-46.34,-80.78,106.26
-1.38,-0.78,-0.55,-16.31,-62.23,119.56
-1.33,-0.65,-0.27,2.03,-55.09,121.03
-1.13,-0.44,-0.16,1.12,-47.67,110.88
-0.92,-0.34,-0.22,9.52,-40.95,103.88
-0.8,-0.27,-0.19,18.97,-37.24,92.12
-0.74,-0.29,-0.16,23.87,-31.99,80.01
-0.63,-0.31,-0.15,30.45,-24.85,67.34
-0.68,-0.24,-0.15,38.15,-19.74,60.13
-0.62,-0.2,-0.01,35.35,-20.09,47.53
-0.68,-0.11,0.02,27.51,-11.97,36.82
-0.76,-0.04,-0.01,17.08,-1.19,24.01
-0.83,0.01,-0.06,5.39,4.62,13.16
-0.82,-0.01,-0.11,-1.12,4.55,0.84
-0.72,-0.09,-0.12,-2.8,1.19,-11.48
-0.6,-0.18,-0.1,-3.36,-2.38,-21.7
-0.46,-0.28,-0.07,-1.19,-1.05,-28.98
-0.33,-0.35,-0.02,3.92,4.48,-34.37
-0.24,-0.41,0.02,11.9,11.48,-40.25
-0.18,-0.4,0.06,22.26,17.22,-43.89
-0.15,-0.34,0.07,32.34,27.09,-46.34
-0.17,-0.25,0.03,40.74,35.77,-49.28
-0.21,-0.15,0.01,45.71,41.72,-53.48
-0.29,-0.06,-0.04,47.39,44.66,-57.89
-0.36,0.01,-0.07,51.8,44.03,-61.6
-0.42,0.06,-0.1,53.13,40.95,-63.84
-0.49,0.08,-0.14,54.88,37.45,-65.17
-0.57,0.09,-0.17,57.12,33.95,-64.4
-0.65,0.08,-0.18,61.6,30.59,-62.58
-0.72,0.11,-0.19,62.58,27.58,-61.18
-0.76,0.13,-0.21,60.27,27.09,-61.74
-0.79,0.18,-0.23,54.95,28.56,-64.4
-0.84,0.24,-0.24,45.5,27.51,-69.72
-0.92,0.29,-0.26,33.32,21.21,-75.04
-1.03,0.34,-0.26,19.53,13.58,-77.84
-1.06,0.44,-0.19,0.14,6.65,-79.66
-1.14,0.52,-0.21,-16.1,5.39,-80.01
-1.16,0.55,-0.18,-30.38,4.55,-81.34
-1.18,0.54,-0.12,-39.97,1.26,-84.14
-1.21,0.55,-0.04,-42.28,-6.23,-85.4
-1.25,0.52,0.15,-38.22,-11.76,-87.92
-1.29,0.43,0.27,-28.91,-8.47,-86.59
-1.29,0.37,0.33,-27.23,-5.88,-79.73
-1.33,0.25,0.28,-22.05,-6.09,-71.68
-1.35,0.13,0.24,-16.94,-1.47,-64.47
-1.28,0.04,0.24,-17.43,8.82,-48.23
-1.18,-0.08,0.26,-2.24,29.19,-32.48
-1.17,-0.15,0.27,16.38,45.15,-13.93
-1.17,-0.29,0.18,40.39,62.65,10.64
-1.31,-0.48,-0.01,56.7,71.19,29.05
-1.47,-0.66,-0.4,62.3,72.73,24.99
-1.4,-0.74,-0.67,62.86,43.82,5.81
-0.89,-0.64,-0.75,69.44,13.79,-1.47
-0.5,-0.64,-0.75,73.78,5.04,10.15
-0.63,-0.4,-0.72,52.78,23.03,31.99
-1.59,-0.09,-0.55,15.12,31.57,46.55
-2.67,0.23,-0.45,-29.89,30.94,70.21
-3.68,0.62,-0.15,16.45,35.7,81.62
-2.99,2.51,-0.06,38.01,28.91,65.1
-1.51,1.72,-0.06,-21.49,-39.41,45.57
-0.89,0.73,-0.55,-39.13,-108.29,29.33
-0.2,0.13,-1.15,3.85,-131.25,40.88
0.44,-0.64,-1.68,78.54,-103.53,50.19
0.43,-1.35,-1.74,116.69,-63.28,4.13
-0.1,-1.71,-1.22,21.07,27.09,-82.18
-0.37,-1.43,-0.13,-90.37,115.64,-83.65
-1.4,-1.53,0.22,-83.79,136.64,-48.44
-2.03,-1.07,0.14,-33.53,121.24,-32.34
-2.04,-0.37,-0.04,18.55,76.86,-32.06
-1.75,0.04,-0.16,50.05,11.69,-35.21
-1.27,0.28,-0.3,61.39,-25.69,-30.73
-0.84,0.39,-0.35,45.64,-30.1,-31.85
-0.64,0.36,-0.33,11.97,-13.58,-36.75
-0.61,0.25,-0.27,-4.55,-0.91,-37.38
-0.66,0.15,-0.21,-10.57,0.49,-34.37
-0.71,0.09,-0.18,-10.08,7.07,-30.52
-0.77,0.01,-0.19,-6.09,11.41,-27.23
-0.79,-0.06,-0.22,-1.68,9.45,-25.13
-0.8,-0.08,-0.24,-1.61,7.42,-24.78
-0.84,-0.03,-0.24,-5.39,7.49,-24.78
-0.9,0.05,-0.23,-8.82,6.51,-24.15
-0.98,0.14,-0.18,-12.95,4.9,-23.59
-1.02,0.22,-0.12,-16.31,2.24,-23.31
-1.03,0.28,-0.07,-19.46,-3.64,-24.29
-0.98,0.28,-0.04,-21.49,-10.01,-25.69
-0.91,0.27,-0.04,-24.22,-14.84,-24.22
-0.85,0.27,-0.03,-28.07,-18.83,-19.25
-0.82,0.24,-0.02,-31.85,-22.89,-14.49
-0.76,0.16,-0.04,-35.28,-30.73,-11.69
-0.67,0.08,-0.12,-40.74,-37.17,-12.81
-0.59,0,-0.2,-44.17,-36.33,-12.04
-0.61,-0.07,-0.24,-45.22,-27.86,-10.5
-0.72,-0.06,-0.24,-43.19,-22.26,-5.25
-0.82,-0.02,-0.24,-36.33,-21.98,4.41
-0.9,0,-0.21,-25.06,-21.49,11.2
-0.92,0.01,-0.09,-14.98,-19.04,15.89
-0.89,0,-0.09,-10.43,-22.4,17.57
-0.76,-0.04,-0.19,-12.25,-29.68,17.64
-0.64,-0.09,-0.31,-14.91,-33.74,16.31
-0.55,-0.14,-0.37,-17.92,-32.55,12.53
-0.48,-0.27,-0.44,-15.82,-26.39,11.13
-0.47,-0.36,-0.47,-9.1,-19.46,9.73
-0.51,-0.41,-0.45,1.19,-13.58,7.49
-0.62,-0.34,-0.36,8.33,-0.63,5.67
-0.82,-0.17,-0.24,6.51,10.85,6.65
-1.01,0.03,-0.15,1.96,18.2,11.62
-1.17,0.26,-0.15,-4.2,19.95,20.16
-1.31,0.53,-0.19,-12.39,13.51,29.19
-1.57,0.72,-0.26,-19.11,-9.38,39.27
-1.89,0.87,-0.31,-51.03,-35.98,48.79
-2.02,0.9,-0.24,-50.75,-58.03,59.71
-2.1,0.73,-0.25,-50.61,-78.4,70.98
-2.1,0.5,-0.33,-44.45,-101.43,79.59
-1.92,0.17,-0.46,-52.22,-112.84,86.66
-1.83,-0.17,-0.6,-50.54,-117.32,99.4
-1.69,-0.31,-0.69,-52.71,-124.04,109.13
-1.64,-0.38,-0.81,-54.25,-119.91,111.44
-1.51,-0.44,-0.79,-44.45,-95.2,115.08
-1.64,-0.48,-0.63,-28.56,-82.6,127.96
-1.45,-0.6,-0.44,-7.14,-68.04,138.25
-1.36,-0.51,-0.19,0.77,-56.63,128.17
-1,-0.36,-0.08,2.03,-37.03,113.61
-0.85,-0.23,-0.14,-0.21,-26.53,94.5
-0.71,-0.16,-0.2,-0.35,-24.08,76.02
-0.63,-0.18,-0.12,-4.97,-27.02,55.44
-0.6,-0.22,-0.06,-5.18,-22.68,40.11
-0.63,-0.22,-0.01,-3.22,-18.27,28.42
-0.7,-0.17,0,-4.06,-12.88,24.57
-0.74,-0.11,-0.02,-7.91,-1.68,22.89
-0.77,-0.07,-0.08,-12.95,5.74,20.93
-0.77,-0.06,-0.14,-17.5,8.61,17.15
-0.73,-0.09,-0.16,-17.5,8.68,10.78
-0.66,-0.15,-0.14,-14.21,8.75,3.08
-0.59,-0.21,-0.1,-10.08,11.13,-3.71
-0.53,-0.24,-0.07,-6.23,34.09,-7.28
-0.46,-0.27,-0.05,-0.98,26.67,-10.92
-0.45,-0.28,-0.05,5.74,34.16,-13.58
-0.45,-0.28,-0.05,11.41,40.81,-16.17
-0.47,-0.26,-0.06,16.24,46.2,-20.3
-0.5,-0.23,-0.06,21.77,48.93,-27.58
-0.51,-0.2,-0.08,27.51,48.79,-34.37
-0.38,-0.16,-0.09,31.92,47.88,-40.18
-0.5,-0.11,-0.09,35.77,46.62,-45.22
-0.51,-0.04,-0.12,38.85,42.28,-50.68
-0.49,0.04,-0.12,42.49,42.35,-54.46
-0.48,0.08,-0.12,42.77,42,-57.33
-0.49,0.12,-0.1,40.53,40.11,-56.28
-0.54,0.13,-0.13,38.85,38.57,-56.21
-0.63,0.14,-0.16,34.51,36.68,-57.96
-0.7,0.16,-0.19,26.81,36.05,-61.46
-0.78,0.17,-0.24,19.25,34.37,-63.77
-0.81,0.17,-0.25,18.2,32.76,-63.42
-0.88,0.14,-0.24,18.2,28.56,-60.2
-0.89,0.19,-0.17,17.85,27.93,-55.09
-1,0.21,-0.11,16.87,28.42,-48.3
-1.06,0.27,-0.07,12.53,25.69,-48.23
-1.09,0.36,-0.02,-5.11,19.46,-56.77
-1.11,0.44,-0.05,-20.44,13.72,-65.73
-1.14,0.46,-0.03,-26.18,8.61,-72.87
-1.19,0.46,-0.03,-24.43,3.57,-78.05
-1.26,0.46,-0.02,-24.01,-4.34,-85.26
-1.32,0.4,0.01,-28.14,-11.06,-89.74
-1.28,0.35,0.06,-35.56,-13.09,-85.89
-1.23,0.27,0.1,-37.94,-8.61,-75.25
-1.15,0.2,0.08,-28.49,-0.91,-60.62
-1.11,0.11,0.15,-16.24,12.11,-47.6
-1.14,-0.12,0.22,-2.52,26.46,-30.24
-1.14,-0.07,0.28,11.97,36.33,-15.19
-1.2,-0.08,0.27,17.57,45.08,2.94
-1.35,-0.17,0.1,30.1,59.71,21.91
-1.61,-0.28,-0.17,49,65.03,29.33
-1.75,-0.41,-0.57,51.17,50.26,18.27
-1.47,-0.44,-0.67,43.89,12.32,2.24
-1.02,-0.43,-0.7,45.85,-16.59,-12.46
-0.6,-0.42,-0.56,48.09,-9.59,-0.77
-0.62,-0.32,-0.59,39.27,19.67,27.37
-1.15,-0.19,-0.66,23.94,25.76,38.71
-1.79,0.02,-0.69,3.57,23.59,43.54
-2.56,0.16,-0.58,-18.55,13.3,51.17
-2.89,0.62,-0.11,7.07,17.78,47.6
-2.23,1.56,0.17,18.2,13.09,31.71
-1.26,0.91,-0.2,-27.16,-53.55,8.12
-0.78,0.38,-0.71,-26.88,-73.57,9.03
-0.35,-0.27,-1.26,24.57,-75.39,14.98
0,-0.86,-1.5,72.8,-59.15,4.76
-0.15,-1.29,-1.49,59.78,-14.21,-32.06
-0.53,-1.38,-0.88,-12.25,44.66,-65.59
-0.69,-1.3,0,-49.28,88.13,-49.98
-1.3,-1.15,-0.01,-18.41,88.9,-41.93
-1.32,-0.7,-0.09,20.23,61.6,-39.83
-1.19,-0.35,-0.21,57.96,32.27,-37.94
-1.04,-0.05,-0.28,63.98,13.58,-32.34
-1.01,0.17,-0.27,46.62,5.95,-31.15
-1.02,0.39,-0.2,22.33,6.86,-31.22
-1.02,0.48,-0.15,1.68,8.82,-30.45
-1.01,0.46,-0.14,-5.04,7,-27.44
-0.97,0.37,-0.16,-3.29,0,-23.8
-0.9,0.22,-0.2,-3.22,-6.51,-22.96
-0.81,0.11,-0.21,-10.71,-6.3,-21.63
-0.81,0.01,-0.18,-15.47,-3.43,-19.04
-0.84,-0.04,-0.17,-14.63,-0.98,-16.31
-0.83,-0.07,-0.23,-9.45,-3.85,-16.03
-0.76,-0.06,-0.29,-9.8,-6.65,-19.11
-0.71,-0.04,-0.32,-18.83,-5.95,-22.61
-0.68,0.01,-0.3,-25.83,-3.08,-23.8
-0.69,0.06,-0.21,-28.21,-2.8,-23.24
-0.7,0.12,-0.13,-25.69,-3.85,-20.86
-0.7,0.16,-0.06,-22.89,-4.76,-18.55
-0.73,0.15,0.01,-22.54,-4.2,-13.72
-0.84,0.12,0.08,-21.98,-3.08,-5.81
-1,0.15,0.15,-19.39,-2.94,5.18
-1.14,0.2,0.22,-14.42,-5.81,16.24
-1.2,0.21,0.15,-11.48,-19.46,22.33
-1.1,0.19,0.04,-13.37,-38.01,21.7
-0.95,0.13,-0.05,-14.28,-49.63,18.55
-0.78,0.09,-0.15,-20.23,-58.17,11.9
-0.66,-0.05,-0.29,-20.44,-59.08,8.82
-0.56,-0.08,-0.44,-17.85,-51.31,7.35
-0.49,-0.14,-0.51,-18.34,-39.13,8.05
-0.54,-0.19,-0.44,-17.64,-26.11,9.03
-0.67,-0.24,-0.4,-14.07,-17.29,10.57
-0.72,-0.27,-0.41,-8.61,-11.41,12.25
-0.76,-0.22,-0.42,-3.15,-8.61,14.21
-0.82,-0.12,-0.4,1.12,-4.97,16.03
-0.87,0.01,-0.44,-0.91,-5.25,17.08
-0.93,0.12,-0.44,-4.55,-4.97,16.73
-0.98,0.37,-0.41,-10.71,-3.5,13.37
-1.03,0.37,-0.37,-15.82,-2.66,10.92
-1.06,0.42,-0.31,-21.7,-6.37,10.64
-1.1,0.47,-0.25,-25.97,-12.67,11.06
-1.15,0.51,-0.23,-31.99,-22.96,11.69
-1.21,0.53,-0.37,-39.69,-34.72,14.56
-1.32,0.49,-0.29,-50.33,-42.42,18.41
-1.49,0.26,-0.33,-59.29,-46.76,19.88
-1.55,0.17,-0.47,-65.24,-54.6,19.04
-1.45,-0.09,-0.56,-56.49,-62.02,21.49
-1.34,-0.19,-0.5,-47.95,-58.38,27.16
-1.39,-0.23,-0.39,-45.5,-49.98,35.14
-1.52,-0.19,-0.41,-45.29,-46.83,47.39
-1.65,-0.15,-0.56,-37.94,-47.81,63.56
-1.73,-0.12,-0.65,-29.75,-43.26,92.68
-1.72,-0.22,-0.58,-22.75,-27.23,120.4
-1.67,-0.45,-0.31,-8.61,-37.59,133.42
-1.63,-0.4,-0.2,14.28,-49.28,137.34
-1.35,-0.25,-0.08,11.76,-44.94,124.11
-1.15,-0.11,-0.13,2.38,-40.95,104.72
-1.02,0.01,-0.19,-5.25,-41.65,81.69
-0.94,0.1,-0.2,-9.45,-41.3,65.59
-0.95,0.12,-0.17,-15.12,-39.97,51.1
-0.92,0.06,-0.16,-24.29,-39.55,36.96
-0.84,-0.05,-0.19,-38.43,-37.31,24.99
-0.73,-0.18,-0.21,-45.99,-34.44,15.47
-0.63,-0.28,-0.19,-46.41,-32.48,9.31
-0.56,-0.38,-0.14,-38.5,-31.29,6.58
-0.52,-0.41,-0.08,-26.11,-26.53,7.28
-0.52,-0.41,-0.06,-14.63,-13.02,9.03
-0.57,-0.39,-0.07,-3.57,-2.59,10.99
-0.61,-0.32,-0.08,6.09,4.69,11.55
-0.63,-0.27,-0.1,10.22,10.78,9.94
-0.62,-0.23,-0.11,11.55,16.66,4.97
-0.6,-0.22,-0.12,13.51,22.33,-2.52
-0.56,-0.21,-0.12,16.31,26.39,-7.28
-0.52,-0.2,-0.11,19.18,32.2,-12.46
-0.52,-0.2,-0.11,22.19,36.47,-19.18
-0.48,-0.22,-0.11,26.39,40.32,-25.55
-0.44,-0.23,-0.1,32.9,44.38,-30.38
-0.43,-0.23,-0.12,41.16,47.18,-34.16
-0.42,-0.17,-0.14,50.75,48.79,-34.72
-0.44,-0.11,-0.14,59.29,48.37,-36.05
-0.5,-0.03,-0.11,62.93,46.55,-36.96
-0.55,0.05,-0.06,55.09,43.54,-38.57
-0.63,0.11,-0.06,46.48,40.46,-44.45
-0.68,0.19,-0.05,34.16,35.84,-50.82
-0.71,0.24,-0.09,22.05,31.64,-57.68
-0.74,0.26,-0.13,16.03,28.84,-59.71
-0.77,0.27,-0.16,13.09,25.76,-60.76
-0.87,0.28,-0.18,9.59,19.67,-59.22
-0.9,0.27,-0.25,3.01,24.71,-58.66
-0.97,0.23,-0.32,-2.17,30.87,-60.27
-1.07,0.18,-0.31,-9.03,33.46,-63.7
-1.13,0.16,-0.22,-17.92,28.14,-68.74
-1.11,0.16,-0.12,-23.03,1.05,-72.87
-1.02,0.16,-0.05,-20.16,9.31,-77.56
-0.95,0.18,-0.03,-16.94,0.63,-78.82
-0.89,0.18,-0.04,-13.02,-6.23,-75.25
-0.88,0.14,-0.07,-6.23,-8.26,-68.53
-0.92,0.08,-0.08,3.64,-2.59,-60.76
-0.99,0.04,-0.02,0.77,4.55,-54.39
-1.09,0,0.1,-12.25,18.13,-51.73
-1.18,-0.07,0.22,-18.83,28.56,-46.62
-1.28,-0.1,0.38,-2.94,39.06,-35.49
-1.46,-0.02,0.51,14.14,48.16,-13.86
-1.71,0.04,0.35,33.81,57.61,7.63
-1.89,0.05,0,63,56,25.41
-1.77,0.08,-0.36,84.07,45.01,25.97
-1.15,0.09,-0.85,76.93,3.57,15.82
-0.63,-0.16,-1.21,58.73,-8.12,5.04
-0.47,-0.43,-0.95,59.08,0.35,10.99
-0.94,-0.33,-0.46,24.36,21.49,30.17
-1.56,-0.09,-0.42,-2.1,39.76,45.22
-2.41,0.17,-0.42,-21.21,26.6,59.43
-3.1,0.7,-0.11,1.05,15.05,61.74
-2.74,1.86,0.15,23.94,11.41,56.14
-1.87,1.56,0.31,-36.47,-37.03,31.99
-1.19,0.57,-0.27,-58.94,-80.71,24.15
-0.56,-0.15,-1.49,14,-99.75,38.43
0.01,-0.82,-1.84,84.98,-105.35,35.07
0.42,-1.58,-1.96,126.84,-76.02,-22.19
-0.04,-1.52,-1.51,26.53,29.54,-80.85
-0.2,-1.28,-0.2,-83.23,94.71,-76.44
-1.06,-1.39,0.15,-57.47,114.1,-56
-1.41,-0.96,-0.03,-12.67,92.47,-50.89
-1.44,-0.46,-0.25,31.64,51.31,-48.09
-1.33,-0.08,-0.33,50.12,14.07,-40.53
-1.29,0.25,-0.28,37.03,3.15,-33.67
-1.39,0.46,-0.14,14.98,8.61,-30.17
-1.27,0.64,-0.07,-6.16,10.22,-26.04
-1.17,0.55,-0.11,-6.65,-1.19,-23.59
-0.96,0.37,-0.15,-2.52,-14.42,-25.55
-0.75,0.21,-0.22,-9.38,-14.98,-25.69
-0.67,-0.04,-0.21,-17.64,-9.73,-24.64
-0.7,-0.19,-0.2,-20.16,-5.04,-24.99
-0.76,-0.28,-0.2,-16.87,-2.59,-25.9
-0.79,-0.31,-0.21,-9.59,-2.52,-26.46
-0.79,-0.24,-0.22,-6.37,-2.87,-26.95
-0.78,-0.1,-0.19,-6.02,-3.5,-25.9
-0.75,0.01,-0.16,-8.12,-4.76,-23.73
-0.69,0.12,-0.12,-11.27,-5.53,-19.88
-0.51,0.17,-0.08,-13.86,-6.37,-17.08
-0.58,0.18,-0.07,-15.61,-8.33,-14.84
-0.59,0.15,-0.06,-18.83,-9.45,-12.46
-0.73,0.13,-0.04,-19.95,-5.11,-5.18
-0.97,0.15,0.02,-16.87,1.82,4.13
-1.2,0.18,0.02,-10.57,-1.05,12.67
-1.29,0.22,-0.02,-6.79,-13.79,12.81
-1.09,0.2,-0.05,-6.44,-31.22,7.56
-0.89,0.13,-0.07,-7.07,-40.11,2.17
-0.72,0.06,-0.08,-10.64,-42.42,-2.31
-0.62,-0.03,-0.15,-11.83,-44.66,-5.46
-0.51,-0.06,-0.26,-16.17,-44.8,-7.98
-0.46,-0.18,-0.35,-17.64,-40.04,-7.91
-0.47,-0.22,-0.36,-19.11,-26.04,-3.78
-0.6,-0.27,-0.37,-13.16,-14.77,2.17
-0.68,-0.26,-0.35,-6.65,-9.24,9.52
-0.8,-0.15,-0.33,-1.33,-6.51,15.47
-0.91,-0.02,-0.29,0.56,-1.68,21.91
-1,0.14,-0.28,-1.68,0.63,26.6
-1.08,0.29,-0.28,-6.37,-0.49,30.73
-1.14,0.35,-0.26,-8.96,-8.4,33.88
-1.23,0.4,-0.23,-5.67,-22.19,34.65
-1.29,0.48,-0.3,-9.73,-44.52,31.22
-1.36,0.51,-0.31,-22.89,-58.52,27.16
-1.45,0.54,-0.36,-49.63,-62.23,20.37
-1.55,0.42,-0.46,-70.84,-58.66,20.58
-1.67,0.18,-0.52,-73.15,-59.99,28.35
-1.67,0.01,-0.52,-67.76,-65.03,39.62
-1.62,-0.1,-0.44,-60.97,-67.69,52.08
-1.72,-0.1,-0.56,-59.29,-75.6,64.05
-1.72,-0.16,-0.85,-43.05,-76.09,87.71
-1.8,-0.21,-0.78,-31.36,-70.91,115.43
-1.86,-0.58,-0.57,-19.53,-63.77,141.82
-1.87,-0.66,-0.28,5.74,-51.45,155.19
-1.59,-0.55,-0.04,25.2,-38.43,154.35
-1.37,-0.23,0.01,17.85,-41.93,138.46
-1.13,0.01,-0.11,5.11,-42.91,118.02
-0.96,0.14,-0.19,-1.4,-43.33,102.34
-0.87,0.21,-0.24,-12.67,-44.87,85.54
-0.84,0.13,-0.22,-21.07,-43.89,65.52
-0.87,0.01,-0.2,-30.38,-46.48,48.37
-0.77,-0.12,-0.2,-40.18,-44.87,31.29
-0.66,-0.26,-0.19,-46.97,-41.51,18.48
-0.53,-0.39,-0.16,-42.77,-36.26,10.36
-0.44,-0.49,-0.1,-29.68,-30.8,6.58
-0.41,-0.52,-0.05,-16.52,-24.15,3.64
-0.41,-0.5,-0.04,-5.11,-14.07,1.12
-0.45,-0.46,-0.04,4.9,0.21,-0.77
-0.49,-0.41,-0.06,14.14,10.15,-3.99
-0.5,-0.38,-0.08,22.05,18.2,-9.45
-0.49,-0.37,-0.1,27.09,24.29,-14.91
-0.49,-0.36,-0.12,31.78,29.54,-18.27
-0.48,-0.32,-0.15,37.31,35.07,-22.05
-0.46,-0.26,-0.17,42.35,41.02,-26.74
-0.44,-0.25,-0.17,46.9,46.13,-32.48
-0.42,-0.26,-0.17,54.25,49.28,-37.94
-0.39,-0.26,-0.16,61.39,52.08,-42.42
-0.39,-0.23,-0.15,68.11,55.79,-44.94
-0.43,-0.18,-0.17,75.39,60.13,-46.55
-0.5,-0.08,-0.13,77.14,59.57,-51.73
-0.58,0,-0.09,71.89,55.51,-57.89
-0.71,0.08,-0.07,58.52,45.99,-64.54
-0.78,0.17,-0.07,45.92,39.76,-71.12
-0.82,0.25,-0.1,33.32,34.3,-76.44
-0.84,0.31,-0.16,19.39,31.15,-80.57
-0.85,0.35,-0.21,8.82,28.56,-83.3
-0.94,0.34,-0.21,2.59,18.9,-83.09
-0.96,0.35,-0.24,-6.44,23.03,-79.45
-1.04,0.35,-0.26,-15.96,27.51,-72.31
-1.15,0.35,-0.23,-26.74,25.62,-68.88
-1.17,0.34,-0.02,-28.49,19.39,-73.64
-1.09,0.33,0,-25.83,9.24,-81.06
-1.06,0.34,0.13,-22.12,-2.38,-84
-1.07,0.35,0.26,-16.94,-13.86,-82.18
-1.07,0.3,0.29,-14.91,-13.65,-76.51
-1.07,0.26,0.23,-15.61,-10.22,-64.89
-1.14,0.19,0.21,-16.52,-3.92,-52.29
-1.13,0.14,0.21,-11.48,4.62,-38.92
-1.13,0.03,0.27,-4.06,12.6,-25.48
-1.1,-0.05,0.37,7,20.37,-9.03
-1.14,-0.06,0.49,15.61,36.96,4.13
-1.3,-0.05,0.45,26.04,63.98,29.82
-1.56,-0.16,0.2,63.56,74.83,57.26
-1.74,-0.24,-0.29,81.41,60.2,64.89
-1.54,-0.18,-0.95,82.46,23.66,52.15
-0.88,-0.33,-1.3,68.95,-19.25,19.39
-0.43,-0.64,-1.2,74.69,-27.3,12.39
-0.65,-0.6,-0.79,31.15,12.11,23.45
-1.61,-0.26,-0.48,-8.05,44.8,40.95
-2.59,0.09,-0.3,-39.2,38.57,57.33
-3.05,0.59,0.04,12.88,46.62,66.22
-2.9,1.96,-0.05,24.71,21.63,57.82
-1.81,1.55,-0.02,-24.29,-40.39,34.3
-1.4,0.72,-0.3,-46.13,-81.9,23.1
-0.79,0.16,-0.91,-39.9,-118.37,30.8
-0.3,-0.79,-1.65,38.43,-106.33,28.21
-0.02,-1.6,-1.96,106.96,-68.04,-14.14
-0.15,-1.88,-1.58,22.05,20.37,-76.58
-0.26,-1.52,-0.29,-63.84,86.17,-81.41
-0.88,-1.51,0.01,-53.97,99.4,-53.41
-1.25,-1.06,-0.18,-9.03,60.2,-46.41
-1.27,-0.57,-0.34,47.74,42.63,-44.03
-1.14,-0.15,-0.43,72.66,22.96,-39.13
-1.13,0.18,-0.46,49.84,16.87,-37.94
-1.18,0.41,-0.3,17.5,24.36,-38.22
-1.29,0.58,-0.13,-9.52,27.16,-39.97
-1.3,0.61,-0.05,-16.94,18.06,-38.08
-1.19,0.48,-0.06,-6.37,2.17,-33.32
-0.94,0.21,-0.18,7,-7.84,-32.48
-0.75,0.01,-0.25,4.76,-6.79,-31.99
-0.7,-0.18,-0.28,-2.17,0,-31.92
-0.73,-0.31,-0.25,-9.52,7.14,-34.3
-0.79,-0.36,-0.23,-11.97,9.1,-35.98
-0.84,-0.26,-0.22,-6.23,7.7,-35.07
-0.84,-0.13,-0.23,1.4,5.39,-33.32
-0.78,-0.01,-0.24,2.73,2.94,-32.9
-0.73,0.08,-0.24,-5.25,0.84,-32.76
-0.68,0.14,-0.21,-13.02,-0.77,-32.69
-0.63,0.18,-0.18,-18.62,-3.22,-32.41
-0.62,0.2,-0.15,-24.92,-4.2,-31.92
-0.7,0.21,-0.11,-31.43,-2.59,-28.28
-0.97,0.21,-0.05,-36.19,0.77,-21.42
-1.21,0.22,-0.01,-36.05,1.68,-12.67
-1.38,0.26,-0.01,-31.08,-2.52,-4.97
-1.37,0.3,-0.02,-24.71,-13.37,-0.07
-1.2,0.27,0.03,-23.17,-25.9,0.56
-1,0.16,0.01,-24.99,-35.14,0.21
-0.86,0.07,-0.05,-27.02,-46.41,-0.56
-0.67,0.03,-0.16,-35.07,-55.93,-3.71
-0.57,-0.06,-0.25,-34.51,-59.5,-5.95
-0.51,-0.11,-0.2,-30.45,-51.52,-7.84
-0.47,-0.16,-0.2,-28.49,-38.92,-11.83
-0.42,-0.36,-0.28,-25.55,-28.49,-17.85
-0.37,-0.35,-0.34,-20.51,-18.13,-21.49
-0.36,-0.39,-0.37,-17.5,-9.87,-23.31
-0.4,-0.41,-0.37,-10.57,-1.82,-19.39
-0.53,-0.35,-0.32,-3.43,6.51,-9.45
-0.72,-0.21,-0.32,-0.7,9.59,4.97
-0.9,-0.04,-0.32,-0.35,9.8,15.89
-1.03,0.16,-0.3,-1.96,11.69,23.31
-1.12,0.34,-0.3,-6.51,8.61,27.37
-1.16,0.46,-0.26,-9.45,2.1,29.33
-1.21,0.53,-0.19,-6.79,-9.66,28.49
-1.28,0.61,-0.18,-7.28,-28.49,26.18
-1.38,0.71,-0.24,-16.73,-47.67,23.94
-1.49,0.72,-0.3,-36.26,-59.92,23.94
-1.6,0.62,-0.36,-60.97,-63.07,26.81
-1.77,0.47,-0.4,-82.39,-65.66,28.77
-1.71,0.22,-0.52,-77.77,-69.02,39.62
-1.65,0.01,-0.58,-55.72,-80.08,55.44
-1.61,-0.18,-0.52,-43.33,-85.12,68.39
-1.57,-0.27,-0.52,-52.36,-85.75,77.21
-1.53,-0.37,-0.68,-56.35,-84.49,90.02
-1.5,-0.43,-0.76,-48.58,-81.62,103.53
-1.43,-0.51,-0.67,-42.98,-69.86,113.05
-1.35,-0.6,-0.52,-26.25,-55.44,120.54
-1.23,-0.53,-0.37,-15.05,-43.68,120.54
-1.1,-0.31,-0.25,-13.23,-38.5,114.45
-0.92,-0.1,-0.26,-11.2,-32.69,103.88
-0.85,0.06,-0.29,-9.8,-30.73,91.91
-0.89,0.08,-0.27,-13.23,-34.93,81.62
-1,0.12,-0.28,-16.24,-32.06,72.24
-0.85,0.01,-0.3,-8.82,-19.81,60.34
-0.74,-0.19,-0.21,-23.59,-16.87,43.96
-0.8,-0.22,-0.17,-28.21,-17.78,30.03
-0.8,-0.25,-0.13,-27.16,-12.18,21.63
-0.81,-0.24,-0.11,-25.83,-3.85,17.43
-0.85,-0.22,-0.12,-25.62,7.77,16.45
-1.79,-0.28,-0.83,-45.43,-80.22,96.53
-1.6,-0.38,-0.81,-40.88,-63.63,121.59
-1.59,-0.67,-0.49,-34.79,-60.06,143.01
-1.62,-0.71,-0.28,-20.37,-46.48,132.72
-1.41,-0.57,-0.12,-4.13,-40.88,128.73
-1.19,-0.36,-0.08,7,-41.3,120.26
-1.04,-0.19,-0.05,11.9,-39.27,109.2
-0.94,-0.08,-0.13,8.05,-36.26,94.57
-0.86,-0.07,-0.19,0.28,-32.48,76.02
-0.84,-0.1,-0.21,-5.18,-33.95,51.45
-0.76,-0.2,-0.2,-8.54,-32.62,35.42
-0.68,-0.24,-0.17,-13.58,-27.51,21.35
-0.64,-0.26,-0.11,-16.1,-24.29,11.76
-0.59,-0.28,-0.09,-12.32,-18.06,6.51
-0.56,-0.28,-0.1,-5.6,-9.8,5.46
-0.54,-0.28,-0.14,1.05,-2.45,5.74
-0.54,-0.28,-0.14,5.11,0.91,4.27
-0.54,-0.26,-0.13,7.84,4.48,2.59
-0.54,-0.23,-0.12,9.66,12.04,-1.12
-0.54,-0.22,-0.11,11.27,19.39,-7.63
-0.51,-0.23,-0.12,13.72,26.32,-14.63
-0.49,-0.25,-0.15,18.76,30.8,-20.16
-0.45,-0.26,-0.18,26.04,34.02,-23.94
-0.42,-0.27,-0.19,34.93,40.53,-28.98
-0.41,-0.29,-0.18,43.33,45.99,-33.81
-0.41,-0.28,-0.16,50.05,50.68,-35.98
-0.41,-0.24,-0.16,60.06,57.05,-35.07
-0.45,-0.21,-0.17,71.82,63.28,-32.97
-0.51,-0.12,-0.13,77.63,64.54,-33.53
-0.58,-0.03,-0.09,72.66,62.16,-40.25
-0.68,0.07,-0.06,56.56,54.11,-48.79
-0.77,0.14,-0.04,44.87,44.1,-58.94
-0.86,0.19,-0.07,30.45,37.1,-67.55
-0.95,0.22,-0.12,20.86,29.4,-70.84
-0.97,0.29,-0.16,22.19,21,-69.51
-1.06,0.33,-0.24,20.86,17.71,-64.47
-1.08,0.36,-0.29,16.1,21.63,-56.35
-1.08,0.38,-0.26,12.6,23.87,-53.41
-1.07,0.4,-0.2,8.26,24.64,-51.66
-1.08,0.43,-0.16,-17.85,22.19,-55.23
-1.05,0.41,-0.08,0.07,15.61,-58.87
-1.09,0.44,0.01,1.26,9.03,-60.76
-1.19,0.5,0.09,3.71,2.03,-59.78
-1.26,0.53,0.16,0.63,-6.93,-59.43
-1.29,0.5,0.17,-7.35,-18.2,-60.34
-1.27,0.41,0.14,-14.98,-19.74,-59.5
-1.25,0.34,0.13,-17.64,-16.59,-55.72
-1.19,0.24,0.11,-14.49,-11.27,-48.44
-1.15,0.16,0.1,-9.94,-5.53,-41.3
-1.09,0.09,0.08,-4.27,4.83,-31.57
-1.08,0.01,0.08,4.06,13.3,-20.93
-1.1,-0.06,0.1,7.42,21.07,-7.91
-1.15,-0.04,0.12,4.83,33.18,12.6
-1.34,-0.11,-0.02,5.74,47.04,29.61
-1.55,-0.3,-0.24,17.57,49.63,29.12
-1.4,-0.39,-0.44,29.96,38.85,20.16
-1.19,-0.44,-0.56,31.29,13.02,2.73
-0.9,-0.4,-0.63,33.81,-4.83,-7.35
-0.73,-0.25,-0.5,30.52,-2.87,7.21
-0.96,-0.05,-0.64,11.48,13.86,30.31
-1.5,0.07,-0.61,-1.47,22.82,41.44
-2.16,0.24,-0.47,-24.78,11.76,46.83
-2.49,0.53,-0.16,-8.54,8.75,42.91
-1.99,0.97,0.08,4.55,-2.31,32.48
-1.49,0.67,-0.03,-38.71,-40.6,9.03
-0.98,0.16,-0.7,-32.41,-64.12,6.86
-0.46,-0.2,-1.15,-0.07,-70.56,4.76
-0.13,-0.72,-1.39,32.55,-66.36,-10.71
-0.05,-1.09,-1.37,39.76,-35.63,-40.74
-0.39,-1.16,-0.93,-13.23,18.41,-58.66
-0.73,-1.04,-0.13,-48.72,62.72,-43.47
-1.32,-1,-0.03,-20.65,66.15,-33.25
-1.47,-0.57,-0.19,19.81,39.9,-27.09
-1.3,-0.26,-0.31,50.75,16.45,-24.22
-1.06,-0.02,-0.45,56.98,1.33,-22.12
-0.85,0.15,-0.5,33.04,3.15,-25.69
-0.79,0.24,-0.41,9.31,13.37,-30.31
-0.83,0.27,-0.27,-2.8,14.7,-33.6
-0.84,0.29,-0.16,-8.4,10.36,-33.88
-0.84,0.25,-0.09,-11.2,7.49,-32.9
-0.84,0.15,-0.04,-11.69,7.63,-31.36
-0.87,0.09,-0.02,-14.49,6.86,-28.28
-0.95,0.06,-0.01,-18.06,3.57,-24.92
-1.06,0.05,0.01,-20.3,-2.31,-20.23
-1.09,0.06,0,-18.27,-8.33,-15.47
-1.02,0.05,-0.06,-17.22,-15.75,-13.51
-0.89,0.02,-0.14,-17.85,-19.81,-12.74
-0.75,0.02,-0.17,-19.74,-22.12,-12.11
-0.7,0.05,-0.14,-22.33,-21.63,-11.27
-0.69,0.1,-0.03,-22.54,-19.95,-8.82
-0.71,0.17,0.03,-20.02,-19.81,-5.81
-0.73,0.19,0.06,-15.33,-20.16,-1.47
-0.78,0.22,0.06,-13.86,-19.46,1.33
-0.8,0.24,0.01,-15.12,-19.32,3.64
-0.77,0.22,-0.11,-20.09,-24.08,2.17
-0.73,0.12,-0.14,-13.44,-25.06,3.71
-0.73,0.11,-0.12,-11.34,-25.06,2.66
-0.7,0.05,-0.16,-15.33,-24.85,0.28
-0.7,0,-0.24,-19.53,-24.36,-2.17
-0.72,-0.01,-0.33,-20.72,-25.27,-3.15
-0.76,-0.02,-0.34,-17.92,-24.08,-1.68
-0.79,-0.01,-0.28,-16.52,-20.23,-0.21
-0.81,-0.05,-0.25,-12.04,-22.96,1.89
-0.77,-0.1,-0.28,-4.06,-27.93,4.69
-0.76,-0.09,-0.28,8.47,-26.6,7.42
-0.84,0,-0.25,10.29,-24.29,7.77
-0.87,0.07,-0.18,5.04,-21.56,7.7
-0.88,0.14,-0.16,-4.41,-18.83,7.21
-0.99,0.25,-0.27,-15.89,-20.79,7.35
-1.23,0.36,-0.44,-23.87,-35.21,11.55
-1.3,0.42,-0.58,-31.22,-43.82,21.77
-1.59,0.45,-0.63,-46.2,-44.17,35.56
-1.84,0.39,-0.53,-55.16,-38.29,46.55
-1.95,0.33,-0.37,-57.75,-34.65,55.37
-1.83,0.25,-0.28,-57.12,-44.45,63.14
-1.78,0.14,-0.41,-60.9,-64.68,69.37
-1.7,0.05,-0.71,-59.78,-79.87,80.01
-1.48,-0.18,-0.78,-51.87,-65.73,103.18
-1.8,-0.59,-0.7,-42.49,-55.3,117.46
-1.68,-0.84,-0.35,-21.14,-40.32,126.28
-1.57,-0.74,-0.06,-8.12,-29.33,121.8
-1.33,-0.48,0.07,-4.48,-27.09,106.82
-1.12,-0.25,-0.09,-4.83,-24.78,91.84
-1.03,0,-0.16,-3.01,-26.46,76.93
-1.03,-0.08,-0.14,0.98,-29.4,66.15
-1.11,-0.07,-0.16,1.12,-29.05,54.81
-1.02,-0.17,-0.15,-6.51,-28.21,37.8
-0.93,-0.26,-0.15,-13.09,-24.22,25.06
-0.83,-0.3,-0.1,-17.29,-19.81,16.8
-0.76,-0.34,-0.05,-16.31,-14.49,11.27
-0.73,-0.35,-0.03,-9.24,-10.22,8.54
-0.72,-0.33,-0.03,-1.05,-6.37,7.77
-0.7,-0.31,-0.03,6.37,-1.26,5.81
-0.7,-0.28,-0.03,11.83,1.54,2.1
-0.7,-0.26,-0.04,15.26,3.71,-3.78
-0.65,-0.24,-0.05,16.24,8.12,-9.03
-0.63,-0.22,-0.06,14.28,12.18,-15.26
-0.59,-0.2,-0.09,10.57,17.15,-23.45
-0.56,-0.2,-0.11,9.87,20.86,-31.43
-0.53,-0.2,-0.13,12.67,24.57,-35.42
-0.51,-0.2,-0.14,15.33,28.07,-38.85
-0.53,-0.22,-0.14,21.77,31.15,-41.44
-0.51,-0.24,-0.13,33.39,32.97,-41.86
-0.5,-0.22,-0.11,42.63,36.19,-39.9
-0.47,-0.19,-0.11,53.2,42.35,-33.53
-0.5,-0.13,-0.14,65.73,46.69,-29.33
-0.52,-0.08,-0.15,72.24,48.58,-27.51
-0.55,-0.04,-0.12,71.12,49.7,-26.95
-0.65,-0.02,-0.11,62.16,49.42,-28.98
-0.75,0.04,-0.25,53.83,46.34,-33.6
-0.79,0.1,-0.16,50.19,42.07,-41.58
-0.96,0.17,-0.17,40.74,29.54,-51.38
-0.9,0.32,-0.27,23.38,29.47,-52.5
-0.95,0.39,-0.28,15.54,31.57,-49.35
-0.99,0.42,-0.26,16.73,31.92,-42.7
-1.03,0.49,-0.25,14.35,30.94,-37.8
-1.08,0.52,-0.2,9.8,28.98,-35.21
-1.11,0.52,-0.14,7.56,22.75,-37.03
-1.08,0.46,-0.08,5.53,13.72,-45.08
-1.09,0.39,-0.09,2.94,0.84,-51.66
-1.1,0.32,-0.03,-1.54,-6.44,-55.02
-1.13,0.26,0.02,-10.29,-8.82,-56.7
-1.15,0.18,0.03,-19.53,-8.82,-57.82
-1.11,0.1,0.07,-24.08,-7.49,-54.11
-1.06,0.06,0.09,-25.27,-2.8,-45.36
-1,0.01,0.1,-18.34,3.57,-35
-0.97,-0.06,0.12,-8.89,9.03,-25.06
-0.98,-0.09,0.13,-3.64,11.34,-18.27
-0.97,-0.12,0.11,2.94,15.96,-14.42
-0.98,-0.14,0.08,9.24,20.02,-12.25
-1.03,-0.06,0.1,10.08,27.16,-5.18
-1.2,0.06,0.05,10.92,36.19,11.34
-1.43,0.11,-0.02,19.18,44.94,17.43
-1.67,0.16,-0.16,31.43,50.47,16.66
-1.71,0.19,-0.27,48.16,51.1,14.14
-1.52,0.23,-0.48,45.92,20.02,11.27
-1.21,0.2,-0.62,33.95,-13.58,15.61
-0.78,0.05,-0.5,16.38,-24.78,26.67
-0.78,-0.12,-0.46,4.34,-4.55,43.19
-1.17,-0.1,-0.52,-8.26,12.74,44.73
-1.67,-0.02,-0.57,-22.54,14.77,36.82
-2.03,0.08,-0.48,-41.65,8.47,32.2
-2.11,0.25,-0.32,-23.94,-7.98,26.74
-1.67,0.39,-0.05,-16.17,-22.82,12.18
-1.24,0.22,-0.29,-27.09,-41.93,-4.13
-0.87,-0.08,-0.63,-20.02,-49.63,-9.73
-0.58,-0.37,-0.94,-5.32,-51.73,-17.5
-0.39,-0.63,-1.17,9.38,-37.31,-27.44
-0.45,-0.84,-1.1,-5.18,-13.93,-36.19
-0.6,-0.87,-0.51,-24.01,20.23,-38.43
-0.88,-0.8,-0.22,-21.84,41.51,-32.62
-1.1,-0.67,-0.27,6.79,37.66,-26.18
-1.09,-0.44,-0.39,34.3,23.87,-24.15
-0.92,-0.23,-0.44,42.91,17.99,-22.26
-0.92,-0.06,-0.39,33.74,21.21,-21.84
-1.05,0.09,-0.25,15.19,26.11,-21.63
-1.2,0.22,-0.08,5.53,24.15,-21.7
-1.26,0.33,-0.02,1.61,14,-20.93
-1.21,0.4,-0.01,-0.35,0.35,-17.43
-1.09,0.34,-0.02,-1.33,-10.36,-13.72
-0.95,0.24,-0.05,-2.52,-19.6,-10.92
-0.85,0.15,-0.1,-10.36,-23.38,-9.94
-0.79,0.05,-0.12,-16.45,-25.62,-11.34
-0.73,-0.03,-0.14,-18.62,-25.62,-13.65
-0.66,-0.08,-0.16,-20.44,-23.59,-17.01
-0.56,-0.13,-0.18,-22.26,-19.95,-20.02
-0.48,-0.16,-0.21,-20.37,-17.5,-22.47
-0.36,-0.17,-0.25,-17.64,-15.47,-25.34
-0.29,-0.15,-0.27,-15.75,-11.76,-27.44
-0.31,-0.1,-0.22,-16.03,-4.2,-26.53
-0.42,-0.02,-0.08,-14.56,5.6,-21.63
-0.59,0.06,-0.02,-10.78,9.17,-12.67
-0.74,0.15,0.02,-4.2,9.94,-4.76
-0.97,0.24,0.03,3.64,8.61,3.5
-1.15,0.36,0.05,9.8,2.94,11.76
-1.27,0.44,0.12,10.99,-4.41,21.56
-1.34,0.47,0.1,6.02,-20.09,26.11
-1.22,0.38,-0.03,0.84,-38.5,24.43
-1.02,0.2,-0.14,-4.34,-49.7,17.43
-0.82,0.07,-0.32,-9.1,-53.34,8.05
-0.58,-0.07,-0.54,-6.93,-52.85,4.97
-0.49,-0.13,-0.51,-10.57,-45.64,3.64
-0.56,-0.11,-0.35,-13.79,-30.73,6.51
-0.77,-0.02,-0.11,-17.01,-15.26,11.2
-1.01,0.15,-0.16,-19.81,-12.74,19.95
-1.19,0.33,-0.43,-21.63,-26.39,28.42
-1.56,0.36,-0.62,-20.72,-43.54,36.47
-1.8,0.39,-0.7,-28.49,-46.9,39.69
-1.94,0.33,-0.63,-42.21,-41.16,43.82
-1.91,0.3,-0.29,-46.69,-35.84,49.42
-1.78,0.31,-0.29,-55.51,-41.51,57.26
-1.67,0.27,-0.37,-68.32,-51.73,68.11
-1.66,0.15,-0.53,-68.88,-57.61,79.24
-1.69,0.02,-0.57,-58.87,-64.89,89.81
-1.59,-0.16,-0.49,-50.68,-66.99,100.31
-1.52,-0.39,-0.36,-45.36,-69.86,97.23
-1.35,-0.46,-0.28,-40.53,-63.63,91.35
-1.17,-0.44,-0.25,-35.63,-55.37,83.16
-1,-0.33,-0.27,-31.15,-46.27,70.07
-0.94,-0.25,-0.29,-27.86,-43.47,62.44
-0.94,-0.2,-0.28,-26.53,-42.98,56.56
-0.95,-0.21,-0.28,-20.37,-37.8,51.38
-0.92,-0.3,-0.24,-14.28,-29.89,43.47
-0.9,-0.4,-0.2,-10.64,-24.08,32.48
-0.82,-0.45,-0.08,-10.64,-11.76,20.51
-0.82,-0.47,0.03,-6.79,-5.81,14.35
-0.82,-0.44,0.08,-0.77,-0.28,10.08
-0.79,-0.38,0.06,5.74,6.93,7.14
-0.78,-0.33,0.03,12.18,12.18,4.62
-0.78,-0.28,0,18.9,15.12,2.52
-0.77,-0.25,-0.02,23.8,17.01,0
-0.75,-0.21,-0.04,27.02,18.76,-4.48
-0.73,-0.19,-0.05,27.16,20.09,-10.99
-0.7,-0.16,-0.06,24.85,21.07,-18.48
-0.64,-0.16,-0.09,23.87,21.77,-25.55
-0.62,-0.15,-0.1,23.1,22.33,-34.58
-0.57,-0.17,-0.11,24.29,23.24,-41.23
-0.51,-0.19,-0.11,27.3,24.57,-45.01
-0.46,-0.18,-0.1,31.99,23.66,-46.55
-0.44,-0.16,-0.11,42.49,24.22,-45.29
-0.43,-0.12,-0.13,52.71,29.61,-41.3
-0.46,-0.06,-0.1,58.87,32.27,-38.43
-0.51,-0.02,-0.12,58.03,36.54,-37.66
-0.55,0.01,-0.1,53.83,41.02,-36.47
-0.66,0.04,-0.11,49.21,45.5,-35.14
-0.75,0.1,-0.11,42.28,39.9,-33.25
-0.81,0.13,-0.13,41.16,32.9,-33.67
-0.82,0.13,-0.16,40.25,27.58,-35.21
-0.83,0.15,-0.18,40.11,27.37,-34.58
-0.85,0.2,-0.2,39.9,31.71,-33.04
-1.09,0.2,-0.22,41.72,31.01,-32.27
-1.03,0.26,-0.18,41.16,29.05,-32.69
-1.06,0.34,-0.18,32.83,24.71,-35.63
-1.09,0.35,-0.12,19.11,14.28,-40.67
-1,0.42,-0.06,7.84,13.93,-46.69
-0.97,0.44,-0.05,-1.61,10.99,-54.67
-0.96,0.39,-0.05,-9.38,6.58,-59.43
-0.94,0.34,-0.04,-15.19,2.17,-59.57
-0.95,0.25,-0.02,-19.46,2.87,-54.88
-0.99,0.14,-0.01,-18.97,5.18,-49.49
-1.02,0.05,0.03,-17.43,7.49,-43.89
-1.07,-0.03,0.06,-13.65,9.87,-38.36
-1.1,-0.11,0.08,-8.19,10.92,-31.71
-1.1,-0.12,0.13,-1.33,13.23,-27.44
-1.11,-0.1,0.16,5.18,16.03,-23.94
-1.1,-0.08,0.18,13.44,22.12,-18.62
-1.14,0.01,0.21,17.29,33.18,-3.64
-1.31,0.09,0.22,22.82,48.72,16.1
-1.57,0.08,0.08,40.88,63.56,31.71
-1.77,0.08,-0.11,64.47,71.47,40.81
-1.59,0.1,-0.35,76.02,63.35,36.05
-1.25,0.04,-0.9,56.35,12.88,21.98
-0.68,-0.16,-1.02,49.63,-18.34,15.12
-0.55,-0.28,-0.87,31.5,-16.59,20.65
-0.98,-0.25,-0.5,-0.49,4.55,29.26
-1.73,-0.01,-0.38,-16.87,21.98,37.1
-2.63,0.01,-0.27,-31.22,5.04,41.44
-2.8,0.59,0,8.4,6.51,40.25
-1.99,1.16,0.41,12.67,4.62,24.5
-1.28,0.61,-0.07,-39.97,-40.39,6.51
-0.69,0.07,-0.98,-12.11,-59.57,11.97
-0.03,-0.36,-1.32,28.07,-61.74,14
0.1,-0.86,-1.59,59.99,-47.67,-7.7
-0.09,-1.05,-1.36,37.45,-7.84,-45.85
-0.43,-1.1,-0.75,-25.41,34.44,-62.58
-0.86,-1.02,-0.09,-40.95,72.38,-46.62
-1.33,-0.89,-0.11,-6.58,75.74,-38.5
-1.46,-0.56,-0.32,30.73,51.66,-33.46
-1.39,-0.25,-0.32,56.49,27.02,-27.51
-1.24,0.12,-0.3,58.03,14.42,-21.07
-1.01,0.34,-0.25,32.69,12.95,-23.38
-1.08,0.43,-0.15,9.31,15.61,-27.16
-1.07,0.44,-0.09,-4.06,8.61,-28.98
-1,0.36,-0.06,-4.41,-2.38,-27.65
-0.89,0.23,-0.05,-1.26,-7.49,-22.19
-0.82,0.01,-0.08,-0.49,-7.7,-16.38
-0.77,0,-0.19,-0.77,-7.98,-15.33
-0.69,-0.09,-0.28,-0.21,-8.19,-16.59
-0.64,-0.16,-0.33,-2.38,-5.46,-19.46
-0.61,-0.18,-0.32,-6.09,-1.26,-21.49
-0.61,-0.15,-0.27,-6.93,0.84,-20.72
-0.63,-0.05,-0.19,-7.84,1.12,-20.09
-0.68,0.07,-0.13,-9.38,1.12,-16.66
-0.8,0.17,-0.04,-13.37,2.8,-8.33
-1.05,0.23,0.05,-15.4,8.19,2.59
-1.22,0.32,0.11,-5.74,9.87,14.35
-1.29,0.45,0.09,-0.42,0.84,25.27
-1.25,0.52,0.09,-3.64,-12.53,33.04
-1.12,0.47,0.04,-12.81,-30.8,32.55
-0.93,0.25,0,-17.5,-43.68,27.79
-0.65,0.11,-0.12,-20.51,-59.08,22.33
-0.59,-0.01,-0.18,-17.78,-63.98,16.73
-0.52,-0.05,-0.15,-14.14,-58.03,9.24
-0.45,-0.07,-0.26,-16.38,-50.33,0.49
-0.29,-0.16,-0.45,-15.12,-39.27,-8.89
-0.16,-0.28,-0.55,-16.45,-33.04,-21.63
-0.12,-0.45,-0.63,-15.96,-23.87,-30.52
-0.25,-0.49,-0.5,-14.49,0.21,-33.46
-0.51,-0.41,-0.25,-19.32,20.09,-23.94
-0.91,-0.28,-0.04,-12.11,25.2,-6.37
-1.17,-0.06,-0.07,-6.79,23.31,7.91
-1.27,0.17,-0.22,-5.53,23.17,21.07
-1.3,0.46,-0.23,-7,22.68,38.15
-1.33,0.56,-0.15,1.12,15.61,51.94
-1.51,0.66,-0.08,12.95,-21.63,58.1
-1.63,0.77,-0.13,7.91,-67.06,54.53
-1.74,0.8,-0.22,-23.87,-92.61,45.08
-1.71,0.58,-0.44,-42.7,-92.12,38.64
-1.74,0.38,-0.6,-49.56,-81.41,37.31
-1.67,0.16,-0.6,-52.43,-77.63,45.15
-1.58,0.01,-0.54,-50.4,-79.03,54.46
-1.54,-0.12,-0.56,-44.94,-78.4,65.38
-1.51,-0.15,-0.6,-39.83,-75.46,78.54
-1.49,-0.24,-0.68,-37.24,-64.47,92.19
-1.46,-0.5,-0.6,-24.92,-52.15,106.54
-1.4,-0.7,-0.43,1.82,-42.21,116.62
-1.27,-0.61,-0.23,14.91,-39.41,111.44
-1.08,-0.4,-0.12,12.88,-32.83,100.38
-0.89,-0.22,-0.15,8.19,-25.62,89.39
-0.82,-0.09,-0.23,9.87,-18.9,80.43
-0.84,-0.02,-0.27,10.85,-14.84,69.65
-0.86,-0.01,-0.28,10.71,-12.46,56.07
-0.84,-0.09,-0.26,6.09,-12.6,35.07
-0.77,-0.13,-0.22,0.7,-10.01,22.68
-0.77,-0.23,-0.14,-4.13,-16.87,10.22
-0.75,-0.27,-0.1,-3.15,-15.33,2.38
-0.72,-0.3,-0.1,0.49,-6.44,-2.31
-0.75,-0.33,-0.1,2.24,4.34,-5.32
-0.81,-0.36,-0.08,5.6,11.13,-7.77
-0.83,-0.36,-0.06,10.01,15.26,-12.32
-0.79,-0.37,-0.06,17.85,20.93,-17.36
-0.71,-0.36,-0.06,24.85,23.59,-22.96
-0.6,-0.34,-0.08,32.41,26.53,-29.26
-0.52,-0.32,-0.08,37.17,30.03,-36.05
-0.48,-0.32,-0.07,41.23,32.76,-44.59
-0.47,-0.31,-0.09,46.2,34.44,-54.53
-0.45,-0.25,-0.11,51.1,35.98,-58.8
-0.46,-0.2,-0.15,54.88,39.69,-62.23
-0.48,-0.1,-0.17,55.93,43.54,-64.26
-0.53,-0.01,-0.16,49.77,42.49,-66.99
-0.62,0.09,-0.15,40.11,39.69,-69.72
-0.74,0.21,-0.1,24.43,30.94,-72.59
-0.79,0.3,-0.09,14.91,27.65,-73.22
-0.78,0.35,-0.1,8.33,30.45,-68.74
-0.75,0.33,-0.15,1.19,30.66,-64.54
-0.8,0.27,-0.13,-2.45,26.39,-55.23
-0.8,0.31,-0.18,-11.69,33.53,-41.58
-0.91,0.31,-0.16,-23.45,38.36,-35.42
-1.05,0.27,-0.08,-31.01,33.95,-38.36
-1.15,0.3,-0.03,-32.83,27.51,-46.41
-1.16,0.33,0.04,-25.69,16.45,-57.75
-1.18,0.46,0.11,-19.88,-2.17,-67.83
-1.19,0.52,0.21,-24.43,-26.6,-76.37
-1.08,0.49,0.29,-31.57,-36.05,-80.78
-1,0.41,0.29,-37.87,-35.07,-75.18
-0.98,0.35,0.21,-42.35,-31.15,-64.26
-0.88,0.27,0.09,-45.57,-22.89,-51.73
-0.83,0.06,0.1,-42.14,-4.27,-32.41
-0.84,-0.09,0.17,-32.34,24.85,-16.31
-1.04,-0.1,0.25,-22.33,45.71,7.84
-1.38,-0.09,0.32,-21.98,68.25,33.32
-1.96,-0.31,-0.01,-8.47,68.81,56.63
-2.15,-0.23,-0.25,43.89,65.59,66.43
-1.56,-0.21,-0.79,64.68,24.01,54.25
-0.84,-0.39,-1.07,63.49,-29.75,38.15
-0.35,-0.58,-0.69,75.81,-37.38,37.45
-0.36,-0.57,-0.69,62.86,-14.56,42.35
-1.01,-0.15,-0.71,22.68,2.52,34.02
-1.91,0.04,-0.41,-9.45,18.9,35.77
-2.88,0.42,-0.13,-24.22,6.3,47.95
-2.86,1.51,0.15,12.74,10.99,47.39
-1.97,1.36,-0.1,-24.5,-29.26,17.36
-1.31,0.56,-0.55,-52.01,-78.61,6.02
-0.52,0.11,-1.29,-19.67,-105.77,7.35
0.12,-0.53,-1.62,34.51,-92.12,-1.47
0.14,-1.15,-1.59,30.52,-43.89,-45.71
-0.21,-1.18,-1,-45.22,30.03,-74.34
-0.61,-1.18,-0.13,-90.02,86.24,-65.45
-1.15,-1.16,-0.12,-43.12,81.76,-52.29
-1.3,-0.81,-0.31,5.25,55.3,-48.58
-1.25,-0.48,-0.43,36.05,32.48,-46.55
-1.22,-0.16,-0.37,39.2,30.73,-40.39
-1.35,0.06,-0.23,25.13,37.24,-36.4
-1.43,0.29,-0.1,8.05,31.85,-35.56
-1.35,0.34,-0.05,4.13,3.22,-35.84
-1.15,0.27,-0.12,3.08,-3.5,-39.41
-0.91,0.13,-0.22,-1.33,-15.19,-44.8
-0.74,-0.01,-0.31,-8.61,-10.71,-47.11
-0.67,-0.15,-0.34,-12.67,-0.84,-47.32
-0.68,-0.26,-0.32,-12.18,8.05,-46.55
-0.71,-0.31,-0.28,-7.84,13.51,-44.66
-0.76,-0.28,-0.27,-0.63,14.98,-43.33
-0.81,-0.21,-0.29,8.33,12.95,-42.28
-0.84,-0.11,-0.27,10.01,9.94,-40.74
-0.85,0,-0.24,8.19,7.14,-39.06
-0.83,0.08,-0.19,4.69,3.85,-38.43
-0.78,0.15,-0.15,-0.07,0.14,-37.73
-0.73,0.18,-0.14,-7.63,-2.59,-37.59
-0.74,0.2,-0.13,-12.39,-3.08,-36.12
-0.81,0.2,-0.1,-15.19,-1.96,-32.34
-0.92,0.23,-0.05,-15.68,-0.91,-23.38
-1.01,0.26,-0.02,-13.72,-3.36,-15.96
-1.02,0.26,0,-11.55,-10.64,-10.85
-0.96,0.23,0,-10.85,-18.41,-8.61
-0.87,0.18,-0.03,-15.75,-26.74,-9.31
-0.78,0.12,-0.13,-21.77,-34.93,-12.25
-0.68,0.03,-0.22,-25.97,-38.43,-16.45
-0.59,-0.04,-0.29,-27.93,-35.63,-21.42
-0.52,-0.11,-0.37,-29.68,-25.13,-25.41
-0.46,-0.21,-0.43,-33.46,-15.12,-32.06
-0.49,-0.31,-0.47,-34.02,-4.69,-35.98
-0.63,-0.31,-0.38,-28.91,7.49,-31.01
-0.84,-0.22,-0.14,-15.47,14.49,-15.61
-1.04,-0.09,-0.07,-2.87,12.53,0.56
-1.1,0.05,-0.11,2.17,6.16,4.2
-1.09,0.1,-0.2,3.57,-4.83,1.47
-1.02,0.13,-0.32,2.52,-15.4,-2.66
-1,0.12,-0.34,3.64,-24.43,-8.68
-1.01,0.11,-0.3,3.85,-28.77,-15.4
-1.04,0.11,-0.23,0.84,-26.18,-22.96
-1.09,0.11,-0.21,-3.64,-24.64,-30.38
-1.14,0.16,-0.26,-11.41,-28.98,-35.28
-1.21,0.24,-0.5,-21.77,-35.84,-36.19
-1.29,0.31,-0.48,-33.18,-41.23,-28.49
-1.42,0.36,-0.43,-42.42,-40.32,-7.98
-1.51,0.45,-0.33,-48.09,-39.48,11.27
-1.52,0.53,-0.21,-49.14,-44.52,34.44
-1.61,0.55,-0.18,-50.26,-60.2,55.79
-1.73,0.44,-0.26,-51.17,-83.09,69.79
-1.73,0.22,-0.46,-52.99,-105.63,79.52
-1.71,0.01,-0.77,-55.79,-109.69,106.54
-1.62,-0.31,-1.03,-49.91,-105.84,107.24
-1.51,-0.59,-1.08,-38.99,-74.41,129.22
-1.13,-0.77,-0.98,-8.54,-42.56,163.73
-1.11,-0.67,-0.53,-22.19,-30.17,144.97
-1.36,-0.32,-0.49,-40.46,0.7,138.6
-1.09,-0.14,-0.42,-50.19,25.55,127.05
-0.97,-0.07,-0.3,-68.04,7.28,92.19
-0.76,-0.1,-0.3,-75.25,-6.72,67.34
-0.66,-0.21,-0.2,-76.93,-9.1,51.1
-0.75,-0.24,-0.11,-72.66,-5.32,45.57
-0.9,-0.23,-0.13,-69.16,0.28,46.97
-1.08,-0.21,-0.22,-72.1,1.54,45.78
-1.11,-0.2,-0.36,-73.36,0.91,43.61
-1.09,-0.22,-0.4,-70.91,0.84,40.88
-1.02,-0.23,-0.37,-67.9,-1.54,36.05
-0.87,-0.26,-0.3,-66.08,-3.15,29.96
-0.79,-0.28,-0.24,-67.27,-3.57,23.1
-0.71,-0.32,-0.16,-68.95,0.77,16.1
-0.65,-0.35,-0.14,-73.01,9.24,8.68
-0.6,-0.37,-0.13,-77.7,17.01,-17.78
-0.57,-0.4,-0.14,-80.29,23.31,-9.8
-0.53,-0.42,-0.15,-79.24,27.93,-16.94
-0.51,-0.43,-0.16,-73.01,30.1,-21.56
-0.53,-0.39,-0.15,-63.14,27.86,-24.36
-0.54,-0.36,-0.15,-52.36,27.16,-26.04
-0.55,-0.32,-0.11,-42.35,28.07,-27.37
-0.59,-0.28,-0.11,-34.02,29.96,-29.61
-0.67,-0.21,-0.1,-33.04,31.5,-28.63
-0.85,-0.15,-0.11,-32.27,33.32,-24.99
-0.89,-0.09,-0.1,-32.41,32.62,-20.37
-1.05,-0.01,-0.03,-31.08,27.23,-13.09
-1.25,0.15,0.05,-39.34,18.62,-8.05
-1.31,0.28,0.13,-45.71,15.19,-4.69
-1.41,0.58,0.16,-47.46,15.54,-0.28
-1.46,0.68,0.21,-37.17,15.89,0.07
-1.43,0.84,0.19,-33.67,13.44,-3.99
-1.38,0.91,0.07,-39.41,14.21,-9.8
-1.3,0.84,0,-48.86,10.43,-11.27
-1.17,0.73,-0.08,-47.81,4.13,-7.84
-1.05,0.65,-0.1,-45.5,3.29,-2.87
-1,0.6,-0.11,-45.64,5.53,2.8
-0.98,0.55,-0.14,-48.44,11.76,4.34
-0.99,0.5,-0.19,-54.95,16.03,4.48
-1,0.45,-0.23,-64.05,18.9,1.75
-0.99,0.4,-0.23,-68.04,21.21,-3.5
-1.05,0.29,-0.3,-69.65,21.35,-12.32
-1.23,0.14,-0.31,-71.19,18.69,-27.44
-1.51,0,-0.22,-77.49,10.29,-34.09
-1.74,0.03,-0.01,-82.6,-3.57,-26.11
-1.68,0.13,0.03,-76.72,0.42,-16.17
-1.55,0.21,0.11,-41.3,1.96,-14.07
-1.55,0.19,0.06,-34.51,3.71,-18.06
-1.34,-0.14,-0.07,-37.24,4.13,-16.24
-0.84,-0.74,-0.34,-20.79,-21.14,4.62
-0.16,-0.93,-0.44,-11.83,-47.39,2.73
0,-0.96,-0.44,-16.03,-41.44,-23.87
-0.18,-1,-0.39,-8.26,-23.59,-47.11
-0.44,-1,-0.4,21.56,-13.72,-62.3
-0.69,-0.89,-0.56,47.74,-10.29,-69.51
-0.87,-0.62,-0.73,58.66,-3.01,-67.83
-0.94,-0.27,-0.75,40.95,6.58,-67.62
-1.06,0.03,-0.82,9.24,12.81,-64.4
-1.04,0.26,-0.76,-29.4,24.43,-65.17
-1.08,0.34,-0.64,-48.09,28.98,-67.62
-1.15,0.32,-0.46,-28.63,16.8,-65.73
-1.09,0.36,-0.3,-13.72,7.77,-65.1
-0.99,0.35,-0.33,-9.45,8.33,-64.61
-0.96,0.14,-0.43,-4.83,9.66,-59.85
-0.9,-0.02,-0.55,2.24,5.74,-52.01
-0.84,-0.16,-0.64,7.84,4.62,-49.35
-0.82,-0.2,-0.61,-1.05,5.67,-52.5
-0.8,-0.3,-0.56,-11.06,8.54,-57.89
-0.8,-0.34,-0.42,-16.87,15.75,-61.88
-0.81,-0.49,-0.32,-19.39,21.42,-63.49
-0.83,-0.42,-0.27,-16.59,26.11,-61.6
-0.86,-0.39,-0.23,-3.01,28.28,-58.87
-0.9,-0.32,-0.25,6.16,29.75,-58.87
-0.91,-0.27,-0.28,7.63,27.86,-60.76
-0.92,-0.21,-0.27,8.61,24.85,-62.79
-0.93,-0.16,-0.28,6.65,21.14,-65.59
-0.93,-0.06,-0.29,-2.8,17.22,-71.05
-0.92,-0.06,-0.27,-11.41,15.68,-73.78
-0.92,-0.04,-0.25,-19.25,16.73,-75.53
-0.94,-0.06,-0.25,-26.39,18.41,-76.16
-0.95,-0.06,-0.25,-29.61,18.76,-75.81
-0.94,-0.06,-0.26,-33.74,17.64,-74.34
-0.93,-0.12,-0.29,-33.6,16.45,-54.04
-0.92,-0.16,-0.33,-30.73,15.33,-69.16
-0.91,-0.19,-0.35,-28.35,13.93,-67.48
-0.89,-0.23,-0.37,-25.48,12.67,-66.78
-0.87,-0.24,-0.37,-24.57,12.6,-67.62
-0.86,-0.24,-0.37,-25.62,12.74,-69.3
-0.86,-0.24,-0.38,-28.63,13.02,-71.75
-0.86,-0.21,-0.37,-30.8,13.72,-73.64
-0.88,-0.17,-0.35,-31.85,14.35,-73.64
-0.92,-0.13,-0.34,-32.2,13.65,-72.73
-0.94,-0.1,-0.33,-33.95,11.9,-72.59
-0.97,-0.09,-0.34,-36.82,8.47,-73.36
-0.98,-0.08,-0.34,-38.57,4.2,-74.13
-0.98,-0.08,-0.34,-40.67,1.47,-75.18
-0.97,-0.07,-0.35,-43.05,-0.07,-76.86
-0.95,-0.06,-0.36,-46.69,-1.54,-78.33
-0.94,-0.04,-0.4,-54.32,-4.2,-78.89
-0.94,-0.08,-0.39,-58.45,-3.36,-76.09
-0.94,-0.08,-0.39,-59.5,-3.43,-71.96
-0.94,-0.11,-0.41,-63.28,-2.38,-67.76
-0.99,-0.18,-0.39,-63.35,-3.15,-62.86
-0.99,-0.23,-0.32,-58.03,-2.52,-55.23
-0.99,-0.29,-0.29,-54.04,-1.4,-46.69
-0.92,-0.34,-0.25,-51.24,8.33,-38.36
-1.11,-0.43,-0.24,-33.04,2.38,-36.26
-1.04,-0.45,-0.19,-23.8,-3.5,-32.69
-1.07,-0.45,-0.19,-14.14,-10.36,-28.7
-1.08,-0.37,-0.25,-7.7,-19.81,-25.06
-1.13,-0.28,-0.35,-3.15,-25.41,-26.46
-1.2,-0.17,-0.41,-2.87,-35.56,-27.58
-1.24,-0.07,-0.44,-5.81,-39.62,-28.14
-1.3,0.02,-0.44,-14.42,-43.68,-28.77
-1.31,0.09,-0.41,-23.24,-48.86,-28.91
-1.35,0.15,-0.37,-30.24,-56.28,-27.37
-1.39,0.18,-0.32,-35.14,-67.83,-23.66
-1.42,0.17,-0.25,-35,-84.21,-17.78
-1.35,0.13,-0.16,-35.84,-102.62,-7.7
-1.28,0.03,-0.14,-38.01,-115.71,-0.84
-1.11,-0.03,-0.2,-43.26,-114.73,6.86
-1,-0.04,-0.33,-54.18,-115.15,17.85
-0.89,-0.05,-0.38,-67.34,-113.75,28.7
-0.82,-0.07,-0.38,-69.86,-107.52,46.13
-0.82,-0.05,-0.41,-73.99,-102.9,57.68
-0.84,-0.06,-0.48,-82.81,-98.98,64.05
-0.87,-0.09,-0.54,-93.73,-93.45,69.37
-0.95,-0.15,-0.56,-96.81,-92.05,76.3
-1.01,-0.2,-0.63,-101.64,-94.29,80.15
-1.02,-0.26,-0.72,-107.87,-91.56,83.37
-0.98,-0.35,-0.82,-116.41,-81.69,85.12
-0.97,-0.47,-0.85,-113.89,-71.75,86.31
-0.94,-0.63,-0.95,-96.25,-66.85,87.71
-0.84,-0.67,-0.81,-58.52,-56.35,93.73
-0.82,-0.47,-0.71,-57.89,-38.78,91.98
-0.77,-0.26,-0.56,-71.61,-18.48,95.55
-0.96,-0.21,-0.42,-84.91,-19.95,94.85
-0.92,-0.17,-0.39,-83.09,-21.98,98
-0.96,-0.17,-0.36,-80.15,-24.5,102.62
-0.94,-0.18,-0.37,-76.16,-21.28,106.54
-0.92,-0.24,-0.41,-73.99,-17.99,105.14
-0.87,-0.22,-0.49,-70.91,-9.03,103.32
-0.93,-0.23,-0.47,-70.91,-11.48,97.79
-0.88,-0.25,-0.43,-69.44,-10.92,87.15
-0.88,-0.25,-0.39,-71.75,-10.78,81.9
-0.85,-0.29,-0.37,-74.62,-13.44,75.18
-0.81,-0.3,-0.33,-79.31,-12.95,68.53
-0.79,-0.28,-0.33,-85.61,-6.44,62.09
-0.79,-0.26,-0.33,-90.72,0.7,57.26
-0.79,-0.26,-0.33,-91.91,2.45,50.75
-0.78,-0.27,-0.32,-93.17,3.15,43.26
-0.77,-0.28,-0.31,-95.48,3.64,34.65
-0.74,-0.3,-0.33,-98.42,0.98,25.62
-0.68,-0.33,-0.33,-96.53,1.89,17.29
-0.65,-0.36,-0.31,-92.89,3.29,9.8
-0.62,-0.38,-0.28,-88.41,4.55,3.22
-0.6,-0.4,-0.24,-82.88,5.67,-2.03
-0.6,-0.41,-0.21,-77.35,8.4,-5.74
-0.61,-0.42,-0.2,-72.31,12.46,-9.66
-0.64,-0.41,-0.16,-66.36,14.49,-13.79
-0.66,-0.38,-0.13,-56.63,17.01,-18.34
-0.71,-0.35,-0.08,-47.32,17.71,-21
-0.78,-0.28,-0.03,-40.74,15.89,-22.68
-0.82,-0.16,-0.01,-39.06,17.29,-25.27
-0.85,-0.09,-0.08,-41.65,26.67,-28.14
-0.97,0.01,-0.09,-46.2,31.64,-33.88
-1.07,0.12,-0.08,-52.01,26.11,-39.2
-1.1,0.22,-0.03,-50.12,19.32,-39.76
-1.2,0.33,0.05,-50.96,11.41,-37.87
-1.27,0.44,0.04,-56,6.58,-33.88
-1.28,0.62,-0.03,-62.86,12.04,-29.47
-1.3,0.71,-0.12,-67.76,17.78,-25.06
-1.39,0.76,-0.13,-65.8,14,-16.87
-1.43,0.77,-0.07,-55.23,7.42,-5.74
-1.44,0.68,-0.02,-47.6,2.45,4.62
-1.33,0.6,-0.05,-46.69,3.43,9.59
-1.2,0.5,-0.14,-52.85,8.12,9.45
-1.1,0.39,-0.21,-63.21,12.32,7.42
-0.93,0.24,-0.27,-70.91,17.29,2.66
-0.84,0.08,-0.33,-74.13,22.61,-6.65
-0.86,-0.12,-0.39,-76.3,24.36,-18.48
-1.02,-0.29,-0.34,-80.78,22.33,-28.42
-1.25,-0.33,-0.22,-92.96,18.97,-26.81
-1.47,-0.29,-0.06,-86.66,7.42,-14.7
-1.58,-0.13,0.03,-60.69,-6.3,-9.03
-1.54,-0.02,-0.01,-41.93,0.42,-14.91
-1.42,-0.06,-0.18,-33.67,-2.1,-21.35
-1.12,-0.24,-0.31,-16.38,-23.24,-13.37
-0.59,-0.39,-0.47,-3.36,-53.34,-10.01
-0.25,-0.52,-0.57,-2.73,-57.12,-22.89
-0.21,-0.68,-0.48,-5.53,-42.77,-32.62
-0.46,-0.8,-0.39,-1.26,-15.82,-41.16
-0.55,-0.88,-0.34,18.41,-0.84,-50.68
-0.69,-0.86,-0.47,49.98,12.88,-57.89
-0.73,-0.65,-0.63,44.8,26.32,-60.76
-0.74,-0.31,-0.75,7.77,37.59,-66.57
-0.86,-0.08,-0.87,-33.32,40.18,-76.93
-1.03,0.1,-0.76,-52.43,25.48,-77.42
-1.09,0.16,-0.61,-53.55,7.91,-74.69
-1.09,0.21,-0.39,-51.73,-1.26,-77
-1.08,0.29,-0.26,-48.44,-0.28,-79.03
-1.07,0.34,-0.28,-43.12,6.44,-72.8
-0.93,0.2,-0.4,-34.23,9.8,-65.66
-0.82,0.04,-0.56,-1.4,12.88,-56.84
-0.78,-0.12,-0.65,2.38,13.09,-49.14
-0.77,-0.26,-0.62,18.9,12.81,-43.33
-0.83,-0.36,-0.54,28.07,14.98,-42.63
-0.87,-0.36,-0.45,19.25,17.29,-48.3
-0.85,-0.44,-0.35,5.67,28.35,-53.13
-0.83,-0.52,-0.25,-3.99,35.28,-56.77
-0.83,-0.53,-0.23,-5.18,35.14,-60.41
-0.85,-0.47,-0.25,-3.85,32.2,-64.82
-0.88,-0.39,-0.25,-4.27,26.67,-67.41
-0.89,-0.3,-0.26,-3.36,22.89,-65.94
-0.93,-0.19,-0.25,-4.06,22.61,-65.52
-0.95,-0.09,-0.24,-5.53,25.41,-65.66
-0.98,-0.01,-0.25,-9.31,24.92,-65.94
-0.98,0.02,-0.25,-13.93,22.4,-65.94
-0.97,0.04,-0.28,-20.37,18.9,-67.41
-0.94,0.02,-0.31,-26.46,16.1,-68.74
-0.91,-0.03,-0.34,-32.48,15.05,-69.93
-0.89,-0.11,-0.35,-38.22,14.35,-70.14
-0.85,-0.16,-0.37,-41.44,13.58,-70.07
-0.85,-0.19,-0.39,-44.03,13.02,-71.4
-0.84,-0.21,-0.41,-47.95,11.83,-73.5
-0.85,-0.23,-0.4,-48.44,13.3,-75.53
-0.85,-0.22,-0.38,-48.02,14.42,-76.51
-0.86,-0.21,-0.36,-47.53,15.96,-77.56
-0.86,-0.19,-0.35,-47.04,16.1,-77.77
-0.87,-0.17,-0.35,-46.76,15.47,-77.7
-0.88,-0.15,-0.34,-46.41,14.21,-77
-0.91,-0.15,-0.35,-47.32,12.95,-76.3
-0.94,-0.16,-0.39,-49.49,11.97,-76.3
-0.96,-0.2,-0.37,-44.8,13.37,-74.27
-0.98,-0.19,-0.38,-40.6,13.23,-71.96
-0.97,-0.18,-0.39,-37.59,12.95,-69.86
-0.97,-0.15,-0.38,-37.1,11.62,-65.87
-0.97,-0.17,-0.41,-37.73,14.14,-63.63
-0.99,-0.18,-0.36,-37.52,11.69,-60.55
-1.01,-0.18,-0.31,-39.06,6.86,-56.98
-1.04,-0.36,-0.26,-39.83,4.55,-52.36
-1.08,-0.37,-0.23,-36.96,2.38,-47.04
-1.09,-0.42,-0.18,-29.82,-3.08,-40.53
-1.12,-0.37,-0.23,-25.2,-10.01,-35.28
-1.15,-0.38,-0.24,-6.02,-19.74,-29.89
-1.16,-0.32,-0.29,5.32,-27.02,-26.39
-1.21,-0.2,-0.34,13.72,-31.92,-22.33
-1.29,-0.04,-0.38,16.87,-37.24,-17.43
-1.38,0.11,-0.39,16.45,-44.1,-13.23
-1.46,0.27,-0.35,12.11,-55.3,-9.59
-1.51,0.41,-0.26,0.77,-66.57,-6.09
-1.52,0.44,-0.16,-9.66,-79.94,-3.22
-1.54,0.44,-0.04,-13.3,-97.44,2.73
-1.57,0.4,-0.03,-16.73,-121.03,14.14
-1.44,0.33,-0.13,-31.92,-132.86,30.45
-1.31,0.27,-0.3,-46.06,-137.83,45.36
-1.1,0.08,-0.45,-67.41,-134.4,53.48
-0.9,0.02,-0.49,-82.53,-131.11,60.41
-0.8,-0.09,-0.59,-93.24,-128.1,72.45
-0.77,-0.22,-0.62,-101.08,-123.9,82.53
-0.83,-0.31,-0.71,-101.43,-115.64,96.18
-0.89,-0.42,-0.8,-97.16,-109.83,109.41
-0.97,-0.42,-0.89,-101.78,-96.11,117.46
-1.05,-0.54,-0.97,-103.46,-80.99,119.84
-1.12,-0.72,-1.1,-88.2,-75.88,120.54
-1.01,-0.79,-1.06,-64.68,-70.98,126.56
-0.94,-0.66,-0.95,-49.28,-43.54,126.84
-0.9,-0.45,-0.88,-48.72,-16.94,128.8
-1.01,-0.38,-0.65,-65.52,-18.76,122.08
-0.95,-0.38,-0.42,-58.87,-22.89,119.7
-0.9,-0.3,-0.37,-56.77,-21.49,119
-0.81,-0.31,-0.39,-58.8,-12.81,115.15
-0.76,-0.25,-0.47,-68.6,-4.97,109.9
-0.75,-0.31,-0.49,-77.49,-3.85,100.03
-0.78,-0.32,-0.52,-84.21,-3.36,90.79
-0.77,-0.35,-0.52,-81.76,-0.77,87.15
-0.82,-0.36,-0.43,-89.6,-5.39,76.65
-0.76,-0.4,-0.43,-94.29,-5.46,62.37
-0.71,-0.45,-0.39,-94.57,-2.17,53.2
-0.7,-0.49,-0.38,-96.39,-2.24,43.12
-0.64,-0.51,-0.39,-94.36,0.56,33.04
-0.6,-0.52,-0.38,-92.33,4.55,22.75
-0.59,-0.56,-0.36,-90.65,8.68,7.98
-0.57,-0.61,-0.32,-84.84,12.46,-2.17
-0.56,-0.64,-0.26,-77.91,12.18,-12.6
-0.53,-0.65,-0.19,-69.65,10.99,-20.72
-0.49,-0.61,0,-65.45,12.25,-26.39
-0.51,-0.56,-0.07,-62.02,14.56,-30.24
-0.57,-0.49,-0.05,-55.16,18.06,-36.47
-0.64,-0.41,-0.04,-52.64,19.81,-42.56
-0.76,-0.33,-0.03,-55.86,19.25,-48.86
-0.89,-0.21,-0.03,-60.06,16.87,-54.04
-1,-0.13,-0.03,-67.69,14.21,-57.26
-1.08,-0.04,-0.03,-66.22,14.14,-55.3
-1.15,0.04,-0.05,-58.45,17.57,-52.43
-1.19,0.14,-0.06,-48.09,22.4,-50.75
-1.27,0.22,-0.06,-33.39,20.02,-48.93
-1.32,0.31,-0.08,-22.26,10.08,-47.04
-1.28,0.36,-0.08,-16.73,4.9,-41.37
-1.2,0.37,-0.11,-14.42,7.21,-32.48
-1.16,0.37,-0.06,-14.84,2.52,-25.48
-1.08,0.32,-0.1,-14.42,4.06,-18.83
-1.05,0.21,-0.08,-12.88,5.46,-13.79
-1.05,0.16,-0.12,-12.53,5.95,-7.14
-1.1,0.12,-0.17,-15.61,7.42,-2.87
-1.17,0.06,-0.26,-19.81,11.97,4.97
-1.37,-0.02,-0.36,-16.24,21.84,14.77
-1.61,-0.07,-0.38,-10.36,25.76,22.12
-1.78,-0.08,-0.31,-8.26,12.39,22.82
-1.59,-0.11,-0.16,-1.4,-11.9,22.4
-1.06,-0.13,-0.16,9.8,-25.97,18.76
-0.76,-0.2,-0.16,-17.43,-28.91,9.8
-0.48,-0.29,-0.25,-21.49,-24.92,-0.35
-0.38,-0.46,-0.36,-37.66,-14.35,-16.38
-0.34,-0.55,-0.46,-58.24,0.56,-36.26
-0.31,-0.51,-0.51,-78.82,21.21,-56.91
-0.36,-0.46,-0.66,-87.85,39.06,-65.52
-0.62,-0.35,-0.71,-85.47,34.79,-65.73
-0.85,-0.21,-0.72,-68.67,21.07,-60.48
-1.08,-0.14,-0.65,-47.25,11.27,-51.1
-1.22,-0.09,-0.36,-27.79,5.67,-44.52
-1.35,0.06,-0.25,-12.32,0.7,-34.09
-1.31,0.21,-0.17,-0.91,7.21,-25.06
-1.19,0.26,-0.27,8.19,14.84,-23.8
-0.89,0.17,-0.42,13.02,12.67,-22.54
-0.68,0.04,-0.64,31.85,15.68,-15.4
-0.61,-0.04,-0.76,27.79,12.25,-8.26
-0.66,-0.17,-0.69,10.5,11.34,-8.12
-0.76,-0.3,-0.48,-10.01,16.87,-17.5
-0.88,-0.38,-0.28,-23.31,23.87,-27.93
-1.02,-0.35,-0.15,-31.22,25.13,-39.2
-1.02,-0.27,-0.1,-31.92,20.86,-45.08
-1.04,-0.22,-0.17,-22.61,11.13,-48.09
-0.98,-0.15,-0.23,-23.94,4.55,-51.17
-0.98,-0.08,-0.26,-31.15,2.87,-52.99
-0.98,-0.02,-0.26,-39.62,2.52,-53.2
-0.98,0.01,-0.24,-45.29,1.33,-51.94
-0.94,0.03,-0.23,-46.41,-0.42,-48.51
-0.89,0.05,-0.23,-44.31,-0.98,-44.24
-0.85,0.06,-0.21,-40.81,-0.56,-39.41
-0.84,0.05,-0.19,-35.84,0.07,-34.09
-0.82,0.04,-0.16,-30.66,-0.14,-28
-0.81,0.03,-0.1,-25.97,-1.19,-24.43
-0.81,0.03,-0.02,-22.89,-2.8,-21.7
-0.82,0.06,0.04,-20.16,-4.83,-18.48
-0.87,0.08,0.09,-19.67,-8.05,-13.86
-0.94,0.08,0.11,-17.71,-12.6,-8.33
-1,0.07,0.12,-14.49,-17.22,-2.17
-0.99,0.06,0.07,-16.31,-22.82,2.66
-0.88,0.02,0.02,-17.43,-25.06,4.06
-0.72,-0.01,-0.05,-16.1,-28.84,3.71
-0.59,-0.01,-0.17,-15.05,-34.23,3.36
-0.47,0.02,-0.34,-22.19,-45.36,3.36
-0.36,0.02,-0.38,-31.29,-50.33,2.59
-0.33,0.01,-0.25,-34.86,-40.53,4.27
-0.43,-0.05,-0.08,-30.59,-24.92,14.63
-0.55,-0.13,-0.04,-23.73,-11.41,22.12
-0.76,-0.18,-0.14,-13.16,-2.87,26.32
-0.8,-0.25,-0.38,-10.5,-14.07,23.45
-0.75,-0.35,-0.53,-11.55,-24.01,15.4
-0.71,-0.35,-0.58,-7.42,-22.19,7.56
-0.66,-0.26,-0.48,-7.84,-11.41,2.03
-0.74,-0.06,-0.32,-12.32,-2.1,0.98
-0.88,0.06,-0.18,-12.6,3.99,5.67
-1.06,0.18,-0.04,-7.7,5.74,13.3
-1.21,0.35,-0.06,-3.64,-6.3,21.07
-1.36,0.51,-0.18,-8.96,-25.9,29.54
-1.58,0.68,-0.27,-23.59,-39.69,40.25
-1.92,0.75,-0.39,-40.53,-57.12,56.21
-2.18,0.77,-0.43,-64.12,-78.26,63.77
-2.25,0.55,-0.43,-81.55,-102.41,71.61
-2.16,0.18,-0.65,-65.52,-120.96,84.07
-1.93,-0.2,-0.84,-35.56,-121.8,99.4
-1.76,-0.4,-0.99,-30.24,-112.42,114.52
-1.81,-0.49,-0.89,-29.89,-103.81,133.42
-1.66,-0.83,-0.72,-28.49,-86.59,145.67
-1.53,-0.96,-0.59,-8.54,-50.05,146.93
-1.29,-0.94,-0.36,16.66,-30.66,141.89
-1.07,-0.56,-0.22,14.21,-30.66,122.43
-0.8,-0.35,-0.22,5.88,-27.44,99.05
-0.6,-0.25,-0.29,3.57,-21.21,77
-0.5,-0.2,-0.29,2.87,-18.62,39.62
-0.47,-0.22,-0.25,-0.21,-16.8,37.24
-0.5,-0.26,-0.2,-1.89,-14.84,24.99
-0.58,-0.26,-0.16,-0.63,-12.32,18.13
-0.62,-0.24,-0.15,-1.19,-6.86,13.79
-0.63,-0.25,-0.17,-0.42,-0.77,11.27
-0.62,-0.26,-0.2,3.22,4.76,7.7
-0.59,-0.29,-0.23,6.23,7.63,1.54
-0.54,-0.36,-0.21,10.5,12.11,-1.75
-0.52,-0.38,-0.18,12.88,15.68,-6.93
-0.47,-0.41,-0.14,22.26,21.84,-12.46
-0.42,-0.42,-0.09,32.83,29.47,-16.45
-0.43,-0.41,-0.04,43.89,38.01,-21.14
-0.42,-0.39,-0.02,50.61,44.03,-28
-0.4,-0.37,-0.02,57.33,50.75,-34.86
-0.42,-0.3,-0.03,63.07,57.54,-43.61
-0.42,-0.18,-0.06,67.97,61.46,-49.14
-0.47,-0.07,-0.03,63.42,52.71,-59.01
-0.53,0.01,-0.01,49.35,38.99,-66.71
-0.57,0.12,0,45.01,28.07,-70.63
-0.66,0.21,-0.07,34.86,25.41,-71.96
-0.74,0.27,-0.25,24.78,25.06,-73.15
-0.79,0.3,-0.21,19.88,23.66,-71.89
-0.94,0.32,-0.31,16.52,20.72,-66.78
-1.14,0.37,-0.33,13.09,15.75,-56.91
-1.32,0.44,-0.36,4.41,17.78,-49.07
-1.33,0.47,-0.3,-18.13,27.58,-46.27
-1.35,0.45,-0.21,-24.85,36.26,-46.69
-1.29,0.45,-0.05,-12.88,26.95,-53.9
-1.21,0.54,0.13,-2.38,-1.4,-62.93
-1.18,0.53,0.19,5.32,-26.32,-65.87
-1.1,0.49,0.25,6.72,-32.27,-64.12
-1.13,0.43,0.24,-7,-29.33,-61.53
-1.15,0.3,0.22,-34.51,-15.26,-56.21
-1.12,0.19,0.23,-48.02,7.98,-46.55
-1.17,0.08,0.38,-40.95,32.97,-34.72
-1.37,0.07,0.42,-27.16,44.8,-16.38
-1.54,-0.02,0.21,-3.85,51.87,10.71
-1.74,-0.21,-0.15,16.1,49.14,26.6
-1.67,-0.38,-0.54,33.32,33.46,43.47
-1.18,-0.34,-0.89,33.74,11.9,48.3
-0.75,-0.5,-1.01,34.16,0.63,35.77
-0.53,-0.58,-0.57,51.52,-1.19,31.43
-0.61,-0.54,-0.37,57.89,16.66,29.4
-0.91,-0.3,-0.5,46.55,24.78,27.16
-1.37,-0.15,-0.59,23.45,20.09,17.01
-1.8,0.06,-0.58,-3.92,11.34,10.15
-2.32,0.24,-0.59,-21.7,-0.35,13.65
-2.47,0.77,-0.41,-4.9,-2.59,13.37
-2.04,1.07,-0.18,-3.71,-0.98,5.95
-1.4,0.61,-0.41,-19.81,-33.95,-5.04
-0.86,0.14,-0.72,-6.79,-48.44,-0.77
-0.5,-0.31,-1.02,12.11,-51.17,-2.1
-0.36,-0.8,-1.14,28.49,-32.76,-25.06
-0.44,-1.11,-0.99,6.02,0.28,-58.31
-0.53,-1.13,-0.54,-39.69,44.24,-72.59
-0.8,-1.06,-0.21,-44.31,57.4,-61.39
-1.03,-0.76,-0.25,-9.17,44.52,-51.87
-1.01,-0.4,-0.29,29.26,34.51,-45.78
-0.92,-0.04,-0.27,34.93,27.72,-38.99
-0.87,0.14,-0.23,15.12,22.26,-38.15
-0.9,0.25,-0.14,-1.4,19.67,-37.87
-0.94,0.32,-0.04,-10.57,18.69,-34.16
-1,0.39,0.05,-15.54,16.66,-29.12
-1.06,0.41,0.15,-15.82,12.74,-23.31
-1.1,0.4,0.17,-12.04,1.12,-18.55
-1.02,0.32,0.1,-8.26,-18.06,-20.37
-0.86,0.23,0.01,-11.83,-28.7,-22.12
-0.72,0.16,-0.04,-18.76,-25.97,-21.28
-0.71,0.13,0,-21.91,-23.59,-18.41
-0.74,0.14,0.05,-22.96,-19.74,-12.25
-0.78,0.16,0.09,-18.76,-15.47,-4.9
-0.82,0.2,0.08,-16.52,-19.95,0.98
-0.81,0.19,-0.01,-18.62,-30.17,3.78
-0.78,0.19,-0.11,-21.98,-36.12,3.85
-0.73,0.14,-0.22,-19.67,-43.19,3.08
-0.67,0.1,-0.27,-15.82,-44.31,2.24
-0.66,0.06,-0.28,-14.56,-38.57,-0.56
-0.7,0,-0.27,-15.33,-31.36,-3.92
-0.79,-0.06,-0.24,-17.01,-23.03,-8.05
-0.81,-0.09,-0.2,-17.29,-14.35,-10.43
-0.8,-0.08,-0.25,-17.99,-8.82,-6.93
-0.74,-0.05,-0.34,-16.87,-13.37,-1.26
-0.7,-0.03,-0.41,-13.37,-21.14,3.15
-0.7,0.02,-0.36,-6.65,-21.56,7.14
-0.75,0.1,-0.35,-6.02,-24.01,8.19
-0.81,0.11,-0.35,-11.62,-29.68,4.48
-0.9,0.13,-0.31,-18.83,-31.5,-1.19
-0.99,0.15,-0.23,-28,-28.07,-5.25
-1.08,0.23,-0.22,-38.36,-26.04,-6.86
-1.2,0.35,-0.26,-51.24,-26.67,-2.52
-1.42,0.48,-0.35,-61.32,-33.18,13.23
-1.69,0.55,-0.41,-65.73,-44.38,31.01
-1.88,0.44,-0.39,-58.87,-54.18,50.96
-1.9,0.35,-0.26,-50.19,-55.44,66.57
-1.92,0.16,-0.24,-46.97,-74.62,80.08
-1.89,-0.09,-0.36,-42.42,-104.72,96.6
-1.77,-0.18,-0.81,-53.76,-112.49,111.65
-1.88,-0.47,-1.02,-53.9,-110.74,129.01
-1.75,-0.68,-0.86,-48.16,-98.49,143.5
-1.75,-0.89,-0.55,-30.31,-65.45,151.06
-1.52,-0.78,-0.11,15.47,-51.52,149.52
-1.33,-0.4,0.03,1.75,-39.9,134.47
-0.98,-0.21,-0.05,-6.3,-32.2,108.92
-0.81,-0.08,-0.14,-13.23,-28.56,88.27
-0.75,-0.05,-0.14,-18.76,-27.58,65.03
-0.76,-0.13,-0.15,-24.01,-25.76,46.34
-0.77,-0.24,-0.18,-26.81,-19.39,28.98
-0.79,-0.28,-0.2,-31.92,-15.54,16.24
-0.79,-0.32,-0.19,-32.2,-12.18,9.8
-0.76,-0.33,-0.17,-26.39,-8.26,7.56
-0.73,-0.35,-0.13,-18.06,-2.87,6.79
-0.7,-0.37,-0.13,-10.08,2.52,7.07
-0.66,-0.37,-0.12,-3.01,7.98,5.88
-0.62,-0.35,-0.08,0.7,11.69,3.01
-0.6,-0.32,-0.04,1.33,16.59,-2.1
-0.57,-0.29,-0.01,1.05,21.07,-8.61
-0.54,-0.26,-0.03,4.06,25.55,-15.26
-0.46,-0.29,-0.05,11.27,28.77,-20.58
-0.38,-0.31,-0.07,20.51,35.98,-24.78
-0.35,-0.35,-0.09,28.35,43.19,-31.43
-0.34,-0.37,-0.11,36.61,48.72,-38.22
-0.35,-0.35,-0.12,44.59,53.62,-42.49
-0.38,-0.29,-0.16,55.37,59.01,-41.93
-0.43,-0.23,-0.2,67.62,65.31,-41.09
-0.49,-0.16,-0.17,75.53,64.61,-41.79
-0.54,-0.08,-0.14,74.13,61.95,-43.89
-0.62,0,-0.1,67.41,59.64,-46.9
-0.69,0.11,-0.07,53.97,56.49,-51.03
-0.81,0.21,-0.1,44.45,48.72,-56.35
-0.79,0.3,-0.13,38.71,43.26,-58.45
-0.74,0.32,-0.15,31.29,39.62,-58.1
-0.8,0.35,-0.18,28.21,38.22,-52.85
-0.94,0.39,-0.23,21.07,38.36,-49.49
-1.03,0.41,-0.26,13.72,38.85,-44.52
-1.16,0.44,-0.24,-1.05,35.28,-43.96
-1.25,0.42,-0.19,-13.16,30.24,-51.52
-1.22,0.37,-0.11,-9.31,14,-61.88
-1.15,0.35,-0.02,-5.74,-3.22,-70.91
-1.15,0.32,0.1,-4.55,-10.36,-76.02
-1.18,0.26,0.14,-0.21,-12.67,-75.04
-1.24,0.22,0.17,-3.22,-8.75,-69.3
-1.25,0.2,0.11,-7.42,-5.25,-60.06
-1.24,0.16,0.13,-16.87,2.24,-52.64
-0.75,0.26,-0.02,-89.18,-56.49,-45.85
-0.73,0.25,-0.02,-95.69,-55.02,-47.53
-0.73,0.25,-0.03,-102.34,-49.42,-48.79
-0.76,0.22,-0.06,-106.19,-37.8,-51.03
-0.87,0.19,-0.07,-104.3,-26.04,-51.24
-0.99,0.16,-0.04,-97.44,-17.78,-49
-1.06,0.16,-0.04,-86.66,-12.11,-44.31
-1.06,0.13,-0.06,-76.37,-8.75,-41.09
-0.99,0.07,-0.06,-68.74,-4.06,-40.95
-0.99,-0.01,0.06,-58.52,-1.75,-45.5
-0.96,-0.14,0.02,-51.94,10.15,-50.12
-1.05,-0.27,-0.1,-49.77,26.6,-51.24
-1.4,-0.33,-0.04,-45.01,35.21,-18.48
-1.72,-0.13,0,-31.29,44.31,10.64
-2,0.1,-0.09,-9.66,65.73,45.78
-2.11,0.19,-0.17,6.51,70.07,57.61
-2.07,-0.04,-0.41,14.84,43.89,57.05
-1.57,-0.24,-0.38,22.82,22.68,54.53
-0.95,-0.43,-0.33,24.08,9.24,52.92
-0.38,-0.52,-0.33,18.97,-1.61,31.15
-0.09,-0.68,-0.32,23.73,-9.94,8.12
0,-0.72,-0.39,33.67,-15.19,-16.1
-0.09,-0.7,-0.47,68.53,-17.92,-34.79
-0.28,-0.68,-0.57,68.74,-9.59,-47.95
-0.56,-0.57,-0.68,58.94,7.21,-52.85
-0.88,-0.46,-0.66,34.58,20.86,-54.67
-1.15,-0.29,-0.7,3.36,24.08,-51.66
-1.3,-0.23,-0.74,-7.21,28.35,-49.35
-1.26,-0.02,-0.8,-7.49,33.32,-44.87
-1.16,0.13,-0.73,-11.97,31.15,-48.16
-1.09,0.17,-0.56,-12.18,19.46,-58.31
-0.95,0.14,-0.45,-3.36,11.27,-63.77
-0.86,0.12,-0.44,-1.75,11.2,-61.81
-0.87,0.06,-0.45,-4.48,13.02,-61.25
-0.78,-0.06,-0.46,-2.45,13.58,-64.89
-0.84,-0.12,-0.54,0.42,14.91,-63.07
-0.79,-0.18,-0.5,14.63,20.79,-59.85
-0.78,-0.18,-0.45,18.48,25.34,-58.52
-0.78,-0.16,-0.38,21.56,29.89,-60.41
-0.81,-0.14,-0.32,24.85,35.14,-64.68
-0.86,-0.09,-0.25,20.93,30.38,-70.07
-0.94,-0.09,-0.26,13.16,23.94,-74.62
-0.97,-0.1,-0.2,7.14,24.08,-77.84
-0.99,-0.08,-0.19,-11.27,22.26,-82.04
-0.98,-0.14,-0.14,-22.19,23.24,-85.96
-0.97,-0.12,-0.13,-33.04,24.71,-88.76
-0.95,-0.13,-0.13,-44.24,23.87,-87.64
-0.96,-0.14,-0.11,-50.89,19.6,-85.96
-0.96,-0.14,-0.13,-52.29,13.3,-83.86
-0.96,-0.16,-0.18,-47.67,8.54,-81.69
-0.95,-0.17,-0.23,-40.25,6.16,-78.96
-0.92,-0.19,-0.31,-33.25,5.81,-77.7
-0.89,-0.21,-0.38,-26.32,7.21,-77
-0.87,-0.22,-0.43,-20.79,8.61,-78.12
-0.85,-0.2,-0.46,-17.99,7.91,-80.5
-0.84,-0.16,-0.49,-19.67,6.16,-85.47
-0.84,-0.09,-0.51,-31.29,3.5,-91.98
-0.85,-0.01,-0.51,-47.04,-0.07,-98
-0.87,0.01,-0.49,-62.44,-2.24,-102.97
-0.91,0.08,-0.5,-78.19,-4.97,-105.84
-0.93,0.05,-0.49,-88.06,-4.27,-105.84
-0.94,0.03,-0.45,-95.83,0.35,-103.67
-1,-0.01,-0.39,-96.11,5.11,-100.45
-1,0.01,-0.36,-90.58,3.92,-95.13
-0.97,-0.01,-0.33,-91.63,4.55,-88.2
-0.99,-0.04,-0.26,-95.83,5.53,-81.83
-1.02,-0.16,-0.19,-95.13,6.02,-71.82
-1.07,-0.33,-0.13,-90.37,5.6,-63.56
-1.17,-0.51,-0.08,-78.4,-0.42,-53.97
-1.22,-0.58,-0.09,-51.45,-9.24,-41.44
-1.18,-0.56,-0.15,-30.8,-20.72,-28.49
-1.12,-0.52,-0.3,-11.55,-30.59,-19.81
-1.06,-0.4,-0.43,-2.38,-38.15,-16.87
-1.07,-0.22,-0.54,-1.82,-40.04,-16.24
-1.16,-0.09,-0.59,-7.35,-41.79,-16.87
-1.26,0.02,-0.59,-15.89,-45.92,-18.69
-1.28,0.1,-0.53,-27.3,-51.17,-21.42
-1.29,0.18,-0.45,-38.36,-57.19,-24.36
-1.32,0.23,-0.37,-50.05,-64.19,-25.2
-1.35,0.28,-0.3,-58.59,-71.82,-19.81
-1.38,0.32,-0.19,-60.06,-82.6,-9.24
-1.37,0.23,-0.2,-61.74,-99.75,-2.17
-1.34,0.18,-0.19,-60.83,-123.27,5.88
-1.27,0.1,-0.18,-62.65,-136.99,13.51
-1.1,0.12,-0.2,-77.28,-132.02,21.21
-1,0.08,-0.29,-83.02,-121.03,31.22
-0.98,0.06,-0.4,-86.31,-121.52,45.08
-0.84,0.08,-0.52,-90.79,-116.69,53.06
-0.79,0.08,-0.72,-105.98,-112.98,58.45
-0.75,0.12,-0.79,-141.12,-103.81,66.36
-0.85,0.09,-0.86,-133.84,-102.13,76.72
-0.94,0.01,-0.93,-138.18,-103.81,85.75
-0.97,-0.1,-1,-144.06,-104.3,93.66
-0.94,-0.23,-0.98,-148.26,-97.16,97.79
-1,-0.37,-1.03,-144.27,-85.89,100.8
-0.93,-0.46,-1.14,-130.34,-68.11,105.28
-0.97,-0.48,-1.11,-106.33,-42.63,111.93
-0.92,-0.43,-1.06,-103.53,-16.66,107.59
-0.92,-0.36,-0.93,-100.45,-6.93,108.64
-0.94,-0.22,-0.71,-108.15,-10.78,100.94
-0.93,-0.11,-0.62,-112.35,-12.46,98.7
-0.93,-0.08,-0.54,-114.38,-9.45,97.09
-0.89,-0.08,-0.55,-122.5,-9.1,92.05
-0.88,-0.14,-0.57,-126.63,-7.35,85.82
-0.84,-0.14,-0.57,-130.76,-2.87,78.19
-0.82,-0.17,-0.57,-136.99,-2.03,68.81
-0.82,-0.36,-0.53,-142.38,-4.48,58.03
-0.78,-0.28,-0.5,-150.57,-3.01,48.09
-0.75,-0.28,-0.49,-157.85,0.98,38.57
-0.73,-0.29,-0.49,-170.73,-0.49,27.37
-0.66,-0.33,-0.49,-176.96,-0.07,17.71
-0.63,-0.39,-0.47,-176.33,1.96,8.75
-0.6,-0.45,-0.45,-173.81,2.66,-0.42
-0.58,-0.51,-0.43,-171.01,3.08,-11.62
-0.55,-0.55,-0.41,-165.69,4.06,-19.32
-0.5,-0.6,-0.36,-158.62,7.21,-25.83
-0.49,-0.64,-0.31,-146.37,9.94,-30.31
-0.48,-0.67,-0.27,-133.21,12.88,-32.9
-0.51,-0.67,-0.22,-118.65,15.4,-34.16
-0.55,-0.67,-0.18,-103.53,17.71,-36.33
-0.61,-0.67,-0.13,-85.54,20.72,-36.75
-0.72,-0.65,-0.06,-70.98,21.56,-34.86
-0.84,-0.6,0,-58.52,22.26,-32.34
-0.99,-0.48,0.03,-52.78,21.49,-27.16
-1.14,-0.36,0.09,-53.48,20.44,-23.45
-1.31,-0.22,0.2,-55.37,14.07,-23.38
-1.28,0.01,0.07,-60.69,17.71,-19.67
-1.36,0.19,0.07,-53.41,7.91,-19.81
-1.22,0.47,0.05,-49.21,18.13,-13.58
-1.13,0.66,-0.01,-42.77,41.09,-2.1
-1.27,0.76,-0.08,-33.81,42.07,10.36
-1.36,0.96,-0.15,-32.41,33.25,29.12
-1.39,1.1,-0.26,-37.8,28.63,42.84
-1.36,1.02,-0.36,-41.65,23.1,45.08
-1.34,0.86,-0.42,-46.13,15.61,40.39
-1.25,0.7,-0.36,-55.3,8.4,31.57
-1.13,0.53,-0.31,-73.22,7.98,16.73
-1.01,0.33,-0.29,-87.29,10.5,-0.84
-0.88,0.09,-0.37,-94.64,18.2,-18.13
-0.85,-0.19,-0.52,-96.81,21.07,-35.84
-0.96,-0.46,-0.54,-94.71,13.02,-42.14
-1.18,-0.48,-0.41,-98.56,6.58,-36.75
-1.46,-0.43,-0.21,-94.99,0,-20.02
-1.57,-0.31,-0.02,-59.01,-9.45,-7.84
-1.45,-0.19,0.17,-35.35,2.66,-9.45
-1.25,-0.24,-0.03,-23.1,9.1,-17.01
-1.03,-0.45,-0.23,-4.34,-10.99,-12.81
-0.64,-0.6,-0.37,12.11,-44.94,-16.87
-0.4,-0.7,-0.46,16.52,-55.58,-26.04
-0.38,-0.81,-0.49,35.7,-42.98,-31.99
-0.42,-0.93,-0.53,33.18,-23.59,-40.25
-0.46,-0.94,-0.59,57.61,-8.89,-49.28
-0.5,-0.72,-0.77,65.66,6.58,-52.92
-0.55,-0.32,-0.89,35,24.08,-57.96
-0.66,-0.06,-0.94,-18.83,48.02,-68.11
-1.09,-0.01,-0.81,-53.83,30.24,-73.78
-1.12,0.07,-0.64,-62.37,11.48,-77.35
-1.12,0.13,-0.53,-59.29,4.76,-81.2
-1.14,0.18,-0.42,-42.7,9.59,-77.56
-1.1,0.14,-0.3,-22.19,16.94,-72.52
-1.04,0.08,-0.36,-9.52,16.31,-70.28
-0.76,-0.09,-0.46,9.52,19.11,-61.74
-0.83,-0.24,-0.53,31.22,18.62,-53.9
-0.82,-0.3,-0.57,46.27,19.81,-48.23
-0.82,-0.34,-0.58,40.88,20.23,-47.6
-0.8,-0.39,-0.53,29.54,19.6,-50.61
-0.76,-0.47,-0.43,18.55,25.27,-53.83
-0.75,-0.5,-0.37,11.76,33.11,-56.14
-0.78,-0.49,-0.3,6.16,38.99,-58.17
-0.87,-0.45,-0.24,33.74,41.58,-57.12
-0.89,-0.34,-0.26,23.38,36.19,-58.38
-0.91,-0.26,-0.28,26.04,33.11,-58.1
-0.93,-0.14,-0.29,22.96,29.47,-58.87
-0.92,-0.06,-0.28,16.59,28.14,-59.99
-0.92,-0.02,-0.29,9.66,27.02,-59.92
-0.92,0,-0.31,3.36,25.69,-59.78
-0.92,0,-0.35,-3.99,23.03,-60.41
-0.9,-0.02,-0.4,-11.9,19.81,-61.81
-0.87,-0.07,-0.41,-19.53,19.39,-64.05
-0.87,-0.14,-0.41,-23.38,18.27,-65.59
-0.85,-0.2,-0.42,-26.67,17.01,-66.08
-0.84,-0.23,-0.4,-29.19,18.83,-66.01
-0.84,-0.25,-0.38,-30.17,21.07,-66.5
-0.86,-0.23,-0.36,-31.92,21.28,-66.43
-0.88,-0.22,-0.32,-31.43,20.72,-65.52
-0.91,-0.2,-0.28,-28.07,18.97,-64.26
-0.95,-0.2,-0.28,-22.4,16.8,-63
-0.99,-0.16,-0.32,-18.41,14.07,-63.28
-0.99,-0.17,-0.34,-14.14,15.12,-63.56
-1,-0.09,-0.37,-8.05,14.28,-64.26
-0.98,-0.04,-0.38,-10.36,15.4,-64.26
-1,0.02,-0.36,-17.08,13.65,-62.79
-1.02,0.06,-0.31,-24.08,12.04,-60.62
-1.04,0.07,-0.24,-33.81,10.5,-55.58
-1.05,0.01,-0.19,-42.56,8.05,-48.37
-1.08,-0.05,-0.16,-43.61,2.52,-40.11
-1.09,-0.15,-0.19,-38.57,-1.96,-32.34
-1.08,-0.22,-0.28,-32.76,-7.56,-25.2
-1.05,-0.27,-0.38,-26.53,-13.58,-19.95
-1.01,-0.3,-0.4,-19.46,-16.87,-15.61
-0.96,-0.29,-0.39,-16.73,-17.71,-10.78
-1.01,-0.29,-0.42,-16.8,-14.7,-10.71
-1.13,-0.21,-0.36,-16.17,-17.99,-8.47
-1.21,-0.13,-0.27,-17.22,-21.14,-5.32
-1.27,-0.06,-0.16,-16.31,-22.82,-1.05
-1.34,-0.01,-0.01,-10.15,-29.61,4.83
-1.41,0.07,0.01,-0.84,-44.87,15.19
-1.45,0.2,-0.07,2.03,-63.77,24.85
-1.47,0.25,-0.19,-4.48,-88.9,33.6
-1.45,0.23,-0.21,-13.16,-104.65,42.14
-1.38,0.15,-0.14,-21.98,-113.05,50.4
-1.29,0.07,-0.07,-22.05,-118.65,60.9
-1.17,0.04,-0.16,-27.23,-124.46,71.4
-1.06,-0.01,-0.33,-40.18,-125.09,78.33
-0.96,-0.04,-0.48,-57.75,-122.64,80.22
-0.87,-0.15,-0.55,-72.59,-115.15,82.39
-0.9,-0.28,-0.64,-74.2,-107.66,92.82
-0.99,-0.41,-0.73,-74.41,-101.01,104.23
-1.09,-0.56,-0.81,-70.28,-95.27,115.92
-1.16,-0.66,-0.85,-62.09,-84.42,127.68
-1.17,-0.77,-1,-58.94,-75.53,136.99
-1.11,-0.8,-0.85,-38.78,-56.21,143.64
-0.98,-0.78,-0.84,-16.66,-42.49,143.85
-1.03,-0.5,-0.85,-3.71,-31.15,137.62
-0.87,-0.42,-0.68,-1.26,-22.89,125.37
-0.97,-0.27,-0.45,9.03,-31.22,124.32
-1.02,-0.16,-0.33,3.43,-45.5,118.51
-0.96,-0.16,-0.27,-6.65,-44.87,111.23
-0.93,-0.2,-0.26,-15.68,-33.53,104.3
-0.89,-0.24,-0.26,-21.35,-27.16,98.49
-0.86,-0.23,-0.3,-40.6,-21.07,91.35
-0.82,-0.28,-0.35,-48.79,-17.57,83.65
-0.77,-0.32,-0.36,-49.91,-17.15,76.79
-0.73,-0.36,-0.36,-46.27,-18.83,70.42
-0.68,-0.39,-0.34,-44.73,-17.15,65.17
-0.63,-0.39,-0.31,-44.1,-13.86,58.24
-0.63,-0.4,-0.29,-43.26,-11.97,51.1
-0.61,-0.4,-0.26,-40.11,-7.28,44.87
-0.6,-0.38,-0.21,-36.12,-2.66,39.41
-0.58,-0.35,-0.16,-32.55,3.29,33.11
-0.54,-0.35,-0.12,-27.23,8.68,22.05
-0.51,-0.31,-0.1,-26.18,14.35,13.51
-0.47,-0.28,-0.09,-28.42,19.53,4.27
-0.46,-0.26,-0.1,-24.57,22.61,-3.29
-0.46,-0.24,-0.08,-20.51,23.52,-10.22
-0.48,-0.22,-0.07,-19.32,22.75,-17.01
-0.49,-0.18,-0.1,-17.57,23.52,-23.94
-0.53,-0.1,-0.15,-16.17,24.85,-27.79
-0.54,-0.04,-0.18,-12.88,25.06,-29.47
-0.56,0.01,-0.2,-9.66,25.55,-28.7
-0.56,0.03,-0.2,-0.98,26.18,-26.95
-0.58,0.03,-0.2,4.83,27.37,-25.48
-0.61,0.02,-0.17,10.29,28.56,-23.1
-0.63,0.02,-0.15,17.36,29.96,-17.01
-0.67,0.03,-0.12,23.31,32.55,-13.51
-0.76,0.03,-0.1,27.86,33.67,-12.88
-0.84,0.05,-0.07,28.77,29.82,-15.4
-0.89,0.09,-0.05,25.41,23.8,-20.51
-0.9,0.13,-0.05,20.65,16.59,-25.2
-0.9,0.13,-0.06,19.18,10.43,-30.31
-0.89,0.12,-0.08,22.33,7.63,-36.75
-0.94,0.14,-0.14,24.57,7,-43.12
-1.04,0.14,-0.19,22.05,6.16,-47.25
-1.13,0.15,-0.22,10.99,4.9,-49.7
-1.18,0.12,-0.2,-2.59,0.14,-50.82
-1.14,0.15,-0.13,-24.85,0.28,-48.65
-1.1,0.15,-0.03,-41.23,6.16,-45.64
-1.04,0.1,0.04,-44.17,8.47,-45.01
-0.97,0.08,0.08,-35.35,7.35,-42.42
-0.88,0.06,0.06,-20.65,7.35,-38.01
-0.83,0.06,0.01,-3.43,6.72,-33.39
-0.82,0.02,-0.06,3.64,6.16,-30.17
-0.83,-0.02,-0.13,7.56,8.12,-27.16
-0.88,-0.06,-0.17,7.21,14.91,-25.27
-0.94,-0.13,-0.17,5.25,23.66,-25.27
-0.98,-0.18,-0.13,9.03,32.62,-27.51
-0.98,-0.21,-0.09,17.99,36.12,-28.28
-0.95,-0.22,-0.03,30.38,43.12,-25.69
-0.95,-0.21,-0.04,33.46,51.59,-13.93
-1.06,-0.27,-0.17,34.79,56.56,-2.87
-1.28,-0.33,-0.43,38.01,54.95,-5.04
-1.44,-0.32,-0.69,35.7,57.4,-19.81
-1.42,-0.17,-0.78,28.42,56.07,-34.09
-1.67,0.01,-0.84,12.46,31.92,-24.71
-2.1,0.17,-0.71,-22.89,8.4,4.9
-2.74,0.23,-0.55,-61.46,3.71,39.97
-3.36,0.51,0.13,-24.57,44.1,75.95
-2.92,1.86,0.55,40.88,44.94,71.05
-1.39,1.37,0.26,-7.28,-73.85,44.17
-0.85,0.52,-0.33,-54.25,-124.39,29.75
-0.1,-0.08,-1.22,38.29,-121.87,48.16
0.56,-0.75,-1.87,123.55,-101.57,70
0.73,-1.56,-2.03,205.73,-71.33,31.99
0.38,-1.92,-1.58,148.4,-11.69,-84.84
-0.05,-1.43,-0.68,-33.95,84.42,-104.02
-1.22,-1.66,0.21,-105.84,150.57,-66.29
-2.05,-1.37,0.33,-83.37,155.96,-44.38
-2.48,-0.72,0.28,-13.51,125.79,-47.04
-2.44,0.04,-0.08,24.22,36.89,-50.4
-1.67,0.47,-0.24,66.5,-21.14,-50.05
-1.11,0.73,-0.46,67.27,-49.35,-41.93
-0.76,0.72,-0.52,39.34,-53.62,-46.13
-0.49,0.64,-0.39,16.87,-24.5,-45.36
-0.47,0.37,-0.3,6.23,-4.2,-39.97
-0.49,0.14,-0.26,2.94,5.04,-35.42
-0.51,0,-0.27,-3.08,14,-34.3
-0.58,-0.12,-0.25,-4.55,21.14,-34.58
-0.7,-0.18,-0.23,-6.16,16.17,-37.1
-0.74,-0.14,-0.2,-7.21,10.71,-36.96
-0.78,-0.04,-0.17,-7.49,10.08,-33.74
-0.83,0.11,-0.15,-8.33,8.47,-28.63
-0.9,0.25,-0.11,-11.83,6.02,-21.28
-1.02,0.36,-0.07,-22.26,0.98,-13.72
-1.17,0.46,-0.06,-35.7,-7.49,-4.55
-1.21,0.49,-0.06,-43.12,-13.16,-0.28
-1.09,0.46,-0.09,-40.67,-20.65,0.28
-0.88,0.35,-0.12,-39.9,-28.91,-0.7
-0.74,0.23,-0.14,-38.85,-34.93,0
-0.66,0.12,-0.09,-34.09,-39.41,3.64
-0.63,0.03,-0.01,-30.52,-39.06,6.86
-0.66,-0.04,-0.02,-29.12,-37.59,10.99
-0.73,-0.13,-0.09,-26.04,-38.22,14.14
-0.84,-0.2,-0.16,-18.34,-37.59,16.66
-0.9,-0.22,-0.15,-12.39,-32.41,19.39
-0.91,-0.21,-0.09,-10.5,-21.77,19.67
-0.84,-0.27,-0.15,-2.8,-19.04,22.12
-0.7,-0.24,-0.31,4.41,-30.73,22.75
-0.59,-0.2,-0.38,-0.35,-36.82,19.39
-0.6,-0.22,-0.4,-0.42,-33.95,15.47
-0.66,-0.22,-0.35,6.23,-24.01,13.51
-0.76,-0.13,-0.38,10.85,-13.3,9.94
-0.87,0.03,-0.41,4.13,-10.78,4.48
-0.95,0.13,-0.41,-5.32,-11.48,-1.19
-1,0.22,-0.35,-11.34,-9.38,-2.66
-1.04,0.29,-0.28,-13.02,-5.32,-1.96
-1.08,0.35,-0.27,-15.61,-6.58,-3.22
-1.11,0.34,-0.22,-17.22,-12.53,-3.57
-1.1,0.31,-0.22,-19.46,-27.37,-4.9
-1.06,0.28,-0.15,-22.61,-36.33,-4.34
-1.11,0.31,-0.17,-32.9,-48.37,-4.27
-1.16,0.33,-0.23,-46.2,-62.3,-1.19
-1.26,0.32,-0.31,-56.42,-71.4,7.35
-1.38,0.24,-0.49,-55.65,-76.37,18.34
-1.49,0.08,-0.62,-45.71,-76.3,27.51
-1.47,-0.02,-0.78,-39.27,-73.08,39.62
-1.39,0,-0.74,-36.75,-68.46,52.57
-1.4,-0.02,-0.58,-48.93,-57.19,64.19
-1.54,-0.07,-0.52,-47.32,-60.9,77.21
-1.54,-0.11,-0.59,-42.35,-59.92,87.92
-1.59,-0.24,-0.6,-37.38,-59.29,90.44
-1.42,-0.37,-0.5,-25.48,-46.34,97.93
-1.41,-0.52,-0.33,-9.66,-33.95,102.06
-1.34,-0.58,-0.19,0.07,-24.22,98.42
-1.17,-0.57,-0.12,5.32,-16.38,91.42
-1.08,-0.49,-0.07,4.55,-12.32,80.92
-0.95,-0.42,-0.08,10.71,-7.77,69.86
-0.85,-0.4,-0.08,19.25,-5.04,59.29
-0.74,-0.38,-0.09,23.03,-2.52,44.73
-0.69,-0.35,-0.1,21.84,-2.38,33.32
-0.67,-0.31,-0.09,19.32,-6.58,23.94
-0.65,-0.27,-0.07,18.27,-8.19,16.8
-0.65,-0.23,-0.06,18.48,-5.88,10.99
-0.69,-0.22,-0.06,19.18,-2.66,6.65
-0.69,-0.22,-0.07,19.74,-0.35,1.89
-0.67,-0.26,-0.08,20.02,2.45,-6.02
-0.61,-0.32,-0.08,23.1,6.86,-12.46
-0.53,-0.37,-0.1,26.46,10.64,-18.2
-0.45,-0.42,-0.13,32.06,15.33,-21.7
-0.4,-0.43,-0.14,40.74,20.65,-23.94
-0.37,-0.43,-0.16,50.96,29.89,-25.48
-0.37,-0.41,-0.16,65.73,36.47,-26.46
-0.37,-0.37,-0.14,81.27,40.74,-26.6
-0.37,-0.34,-0.13,93.03,46.69,-24.99
-0.4,-0.29,-0.13,107.73,55.16,-21
-0.44,-0.12,-0.12,110.39,61.25,-20.93
-0.52,0.07,-0.08,94.36,59.01,-31.85
-0.63,0.19,-0.09,73.85,44.45,-42.77
-0.65,0.32,-0.1,60.06,37.94,-53.2
-0.71,0.42,-0.11,40.04,35.63,-58.31
-0.82,0.49,-0.14,28.07,34.65,-57.96
-0.94,0.51,-0.18,21.28,32.76,-54.04
-1.05,0.54,-0.23,18.62,26.67,-46.97
-1.21,0.6,-0.24,17.92,18.27,-36.05
-1.27,0.67,-0.29,18.55,17.5,-28.49
-1.32,0.69,-0.24,24.15,15.75,-30.73
-1.24,0.62,-0.13,27.02,-1.89,-43.47
-1.15,0.56,0.04,21.35,-20.23,-54.88
-1.1,0.6,0.14,6.58,-32.2,-62.58
-1.05,0.53,0.2,-14.28,-35.98,-65.1
-1.05,0.44,0.17,-37.52,-31.29,-63.49
-1.03,0.3,0.18,-53.62,-21.63,-59.22
-1.05,0.12,0.23,-54.11,-6.51,-51.94
-1.14,0,0.31,-42.42,11.62,-41.37
-1.31,0.02,0.47,-34.79,31.57,-23.31
-1.63,0.04,0.43,-33.74,52.78,7.56
-2.05,0.05,0.15,-19.11,67.13,31.71
-2.15,-0.07,-0.26,19.88,64.26,55.3
-1.6,-0.02,-0.84,29.26,15.26,63.56
-0.72,-0.2,-1.23,9.03,-28.63,57.54
-0.56,-0.64,-0.88,48.79,-34.65,62.16
-0.74,-0.53,-0.45,41.51,-13.58,66.64
-1.07,-0.36,-0.43,36.61,-3.78,63.35
-1.52,-0.18,-0.4,19.74,-3.36,51.31
-1.96,0.09,-0.33,-13.58,-7.49,40.39
-2.11,0.42,-0.37,-15.26,-16.73,28.28
-1.57,0.63,-0.46,-15.89,-22.4,15.05
-1.13,0.4,-0.87,-17.5,-35,3.01
-0.75,0.14,-1.05,-11.55,-39.2,-2.31
-0.48,-0.27,-1.17,-6.16,-35,-15.19
-0.42,-0.58,-1.14,0.77,-16.17,-34.51
-0.55,-0.73,-0.91,-13.37,24.43,-54.04
-0.82,-0.75,-0.5,-46.69,44.24,-65.45
-1.15,-0.73,-0.21,-48.02,48.16,-61.46
-1.43,-0.59,-0.17,-28.07,38.43,-52.5
-1.51,-0.31,-0.23,-9.73,26.67,-44.87
-1.38,0.01,-0.27,-1.82,18.2,-40.88
-1.05,0.1,-0.26,-1.12,10.78,-35.7
-0.98,0.08,-0.25,-1.12,4.55,-33.25
-0.87,0.01,-0.23,-7.14,0.49,-34.51
-0.8,-0.07,-0.21,-13.86,0.21,-36.4
-0.77,-0.13,-0.17,-16.52,1.19,-37.03
-0.74,-0.16,-0.18,-14.7,3.29,-36.05
-0.71,-0.16,-0.18,-8.82,6.93,-33.32
-0.67,-0.14,-0.21,-2.59,10.43,-31.43
-0.66,-0.1,-0.22,-0.35,10.85,-30.24
-0.72,-0.04,-0.18,-3.78,10.64,-27.37
-0.87,0.03,-0.1,-8.05,10.5,-22.89
-1.03,0.11,0,-10.15,10.64,-18.97
-1.15,0.24,0.06,-9.73,8.26,-13.37
-1.18,0.34,0.08,-7.07,-17.22,-9.38
-1.07,0.37,0.07,-7.21,-17.36,-8.19
-0.9,0.32,0,-11.55,-29.61,-9.59
-0.72,0.26,-0.1,-16.1,-33.32,-11.34
-0.57,0.19,-0.22,-21.63,-33.32,-12.6
-0.43,0.1,-0.31,-28.28,-32.48,-16.1
-0.34,0.01,-0.36,-34.16,-26.88,-22.47
-0.47,-0.06,-0.33,-36.75,-10.01,-23.73
-0.59,-0.04,-0.17,-33.53,5.18,-16.8
-0.89,0.03,0.02,-21.28,12.18,-2.24
-1.16,0.13,0.09,-7.42,9.17,10.57
-1.27,0.2,-0.02,-3.5,-3.15,14.49
-1.17,0.02,-0.12,-6.58,-19.74,7.21
-0.96,0.03,-0.24,-10.43,-31.36,-0.91
-0.7,-0.09,-0.36,-8.26,-37.87,-4.69
-0.62,-0.15,-0.4,-7.77,-36.05,-7.77
-0.64,-0.18,-0.39,-3.99,-30.03,-9.38
-0.72,-0.17,-0.32,-5.95,-23.87,-11.41
-0.83,-0.14,-0.25,-7.14,-15.19,-12.18
-0.89,-0.07,-0.23,-5.32,-9.24,-9.45
-0.93,0.05,-0.24,-4.13,-4.83,-3.99
-1.02,0.21,-0.26,-4.76,-8.89,1.89
-1.1,0.37,-0.26,-8.47,-17.22,9.52
-1.22,0.51,-0.26,-14.63,-29.68,19.81
-1.41,0.62,-0.27,-24.43,-43.82,30.17
-1.61,0.66,-0.44,-40.25,-62.37,36.05
-1.64,0.45,-0.46,-51.8,-71.12,40.46
-1.62,0.27,-0.45,-57.61,-64.96,45.99
-1.55,0.08,-0.45,-51.87,-66.5,55.58
-1.58,-0.04,-0.53,-51.24,-77.21,64.12
-1.63,-0.07,-0.71,-48.09,-90.93,73.22
-1.58,-0.11,-0.87,-49.56,-85.54,82.04
-1.35,-0.32,-0.91,-38.78,-58.66,110.88
-1.46,-0.8,-0.61,-18.83,-46.55,122.92
-1.5,-0.87,-0.28,0.56,-22.68,127.19
-1.35,-0.73,0.07,12.95,-21.07,115.99
-1.13,-0.43,0.05,18.41,-11.69,102.2
-0.95,-0.25,0,19.95,-6.3,88.34
-0.93,-0.13,-0.01,16.87,-9.03,70.28
-0.88,-0.12,-0.04,8.89,-11.97,43.61
-0.82,-0.16,-0.08,1.82,-13.16,24.01
-0.75,-0.2,-0.16,-6.23,-15.12,8.4
-0.7,-0.21,-0.21,-16.03,-17.08,-1.68
-0.65,-0.21,-0.22,-21.49,-16.73,-6.58
-0.63,-0.23,-0.19,-21.63,-14.77,-7.42
-0.61,-0.29,-0.17,-13.58,-8.89,-4.34
-0.61,-0.35,-0.16,-2.17,-1.68,1.33
-0.62,-0.37,-0.15,6.79,6.16,2.66
-0.63,-0.38,-0.16,14.56,12.67,1.68
-0.63,-0.37,-0.14,20.16,16.45,-1.89
-0.62,-0.36,-0.1,23.17,19.32,-7.28
-0.59,-0.33,-0.09,27.65,23.1,-11.97
-0.55,-0.31,-0.08,33.11,27.09,-15.75
-0.48,-0.3,-0.09,38.71,31.08,-20.44
-0.42,-0.31,-0.11,45.43,36.19,-24.5
-0.4,-0.29,-0.14,52.29,41.02,-27.79
-0.4,-0.22,-0.18,62.23,46.97,-27.09
-0.46,-0.15,-0.21,70.21,50.61,-25.13
-0.51,-0.08,-0.23,72.17,50.47,-25.06
-0.54,-0.02,-0.23,69.86,49.63,-25.06
-0.61,0.02,-0.21,65.87,50.75,-24.99
-0.78,0.1,-0.2,53.2,48.16,-26.67
-0.87,0.16,-0.19,43.05,45.57,-30.87
-0.94,0.19,-0.17,34.51,38.71,-38.08
-1.01,0.18,-0.13,37.17,29.54,-43.05
-0.98,0.26,-0.15,37.31,28.21,-43.12
-1.03,0.34,-0.11,33.88,24.78,-41.02
-1.01,0.45,-0.06,26.04,21.28,-41.58
-0.98,0.58,-0.04,9.94,15.61,-44.87
-0.95,0.65,-0.04,-7.63,8.19,-50.05
-0.94,0.64,-0.06,-12.81,1.4,-54.95
-0.98,0.54,-0.12,-13.86,-5.18,-58.24
-1.06,0.45,-0.16,-17.5,-10.01,-56.84
-1.17,0.33,-0.15,-24.78,-13.44,-56.07
-1.2,0.18,-0.1,-34.09,-18.76,-56.98
-1.16,0.05,0.05,-38.15,-17.01,-56.56
-1.11,-0.04,0.15,-32.62,-13.72,-52.92
-1.04,-0.05,0.22,-16.31,-10.08,-44.52
-1,-0.03,0.23,-1.89,-7.49,-35.49
-0.99,-0.02,0.18,5.74,-4.55,-24.43
-0.99,-0.05,0.11,10.71,2.03,-16.59
-1.08,-0.04,0.13,4.76,17.43,-6.16
-1.32,0,0.11,-7.84,37.45,11.55
-1.77,-0.01,0.05,-8.4,49.49,25.83
-2.07,0,-0.17,13.93,54.6,31.5
-1.88,0.09,-0.4,39.48,54.74,31.92
-1.37,0.08,-0.8,43.12,38.36,26.39
-0.88,-0.09,-1.01,41.3,-21.21,25.62
-0.36,-0.33,-0.78,55.58,-28.28,33.81
-0.53,-0.37,-0.47,39.06,-0.91,43.26
-1.05,-0.24,-0.55,10.64,19.04,42.42
-1.77,-0.14,-0.47,-17.71,36.26,40.88
-2.62,0.03,-0.33,-35,15.4,42.77
-2.63,0.67,-0.03,0.63,4.41,33.88
-1.71,0.98,0.14,-12.46,-12.46,10.85
-1.12,0.5,-0.37,-51.87,-45.43,-9.45
-0.64,0.01,-0.94,-27.3,-56.84,-5.18
-0.23,-0.46,-1.47,6.44,-63.28,-8.05
-0.11,-0.82,-1.49,27.93,-52.08,-19.46
-0.38,-1.07,-1.15,1.19,-11.06,-48.23
-0.73,-1.06,-0.44,-39.62,48.65,-51.17
-1.19,-1.07,0.01,-34.09,82.18,-39.06
-1.38,-0.84,-0.09,2.38,56.56,-32.55
-1.27,-0.5,-0.25,43.4,26.11,-27.93
-1.12,-0.25,-0.33,55.02,11.69,-22.4
-1.07,-0.05,-0.3,43.96,10.71,-21
-1.07,0.13,-0.25,29.05,17.15,-22.12
-1.08,0.18,-0.22,17.22,14.98,-25.06
-1,0.19,-0.22,13.86,5.6,-27.02
-0.9,0.16,-0.23,14,-0.21,-28.07
-0.8,0.13,-0.25,10.92,-1.61,-28.98
-0.75,0.08,-0.25,5.67,1.47,-28.77
-0.76,0.03,-0.23,2.52,4.9,-26.6
-0.79,0,-0.2,0.49,7,-24.29
-0.84,-0.01,-0.2,0.7,4.48,-21.91
-0.84,0.01,-0.22,-0.91,0.77,-20.93
-0.81,0.04,-0.2,-4.55,-2.38,-20.72
-0.78,0.08,-0.16,-8.12,-4.9,-19.25
-0.77,0.11,-0.09,-10.5,-6.65,-17.43
-0.81,0.16,-0.03,-11.48,-7.63,-14.49
-0.87,0.21,0,-11.62,-8.54,-10.71
-0.96,0.22,0.01,-12.11,-10.85,-6.79
-1.01,0.23,0,-9.87,-13.58,-3.78
-1.02,0.24,-0.03,-10.43,-17.15,-1.75
-0.94,0.21,-0.04,-10.57,-16.87,0.21
-0.87,0.17,-0.13,-13.93,-23.45,0.77
-0.76,0.11,-0.19,-17.71,-30.8,-0.35
-0.69,0.04,-0.17,-18.55,-32.62,-1.89
-0.7,0.01,-0.16,-17.57,-28.7,-4.55
-0.76,-0.02,-0.18,-14,-25.34,-7.14
-0.83,-0.05,-0.2,-8.96,-23.17,-7.63
-0.87,-0.03,-0.26,-6.09,-22.47,-8.05
-0.86,-0.01,-0.28,-5.25,-23.94,-8.61
-0.82,0.03,-0.2,-6.93,-20.37,-6.93
-0.77,0.04,-0.2,-9.73,-15.75,-2.38
-0.7,0,-0.36,-8.26,-24.15,4.76
-0.65,-0.07,-0.42,0.07,-26.81,10.36
-0.69,-0.06,-0.43,3.57,-24.29,11.69
-0.72,-0.05,-0.43,3.85,-20.86,10.92
-0.8,-0.01,-0.44,-0.21,-19.39,5.25
-0.89,0.03,-0.36,-5.6,-14.84,-0.98
-1,0.14,-0.25,-11.27,-5.39,-4.55
-1.07,0.25,-0.16,-34.86,-0.56,-3.99
-1.15,0.36,-0.14,-22.75,-5.53,-2.87
-1.2,0.45,-0.15,-27.51,-16.73,0
-1.26,0.53,-0.14,-33.46,-29.75,7.07
-1.4,0.58,-0.16,-40.39,-42.28,19.04
-1.59,0.52,-0.3,-49.42,-62.65,24.78
-1.73,0.36,-0.46,-58.8,-81.76,27.65
-1.61,0.04,-0.57,-52.43,-84.63,36.82
-1.52,-0.14,-0.54,-47.46,-85.05,47.88
-1.42,-0.29,-0.48,-52.22,-82.11,65.17
-1.51,-0.34,-0.55,-54.04,-84.77,76.65
-1.55,-0.29,-0.63,-46.76,-87.92,86.52
-1.51,-0.26,-0.71,-40.67,-82.53,100.17
-1.51,-0.43,-0.56,-27.44,-65.38,116.69
-1.46,-0.64,-0.39,-3.15,-41.09,136.5
-1.38,-0.56,-0.19,19.53,-31.29,134.47
-1.06,-0.43,-0.03,25.83,-8.47,124.88
-0.99,-0.26,0.06,14.35,-24.36,101.85
-0.86,-0.12,-0.09,4.06,-22.12,77.35
-0.82,-0.09,-0.07,-1.33,-20.51,56.56
-0.77,-0.11,-0.1,-5.74,-17.71,38.99
-0.71,-0.19,-0.14,-11.13,-14.7,20.86
-0.68,-0.23,-0.16,-16.94,-14.07,9.24
-0.65,-0.27,-0.14,-21,-13.51,1.05
-0.65,-0.3,-0.13,-22.05,-12.74,-3.64
-0.65,-0.33,-0.13,-17.36,-10.99,-4.97
-0.65,-0.37,-0.15,-7.91,-8.4,-3.78
-0.65,-0.41,-0.15,2.38,-3.64,17.22
-0.67,-0.45,-0.12,12.95,4.41,1.47
-0.68,-0.46,-0.06,19.18,13.23,-2.1
-0.67,-0.46,-0.03,23.87,24.15,-9.24
-0.62,-0.45,-0.04,29.12,30.38,-16.17
-0.55,-0.42,-0.08,36.33,35.28,-20.44
-0.51,-0.37,-0.13,43.26,39.9,-23.87
-0.49,-0.33,-0.14,50.68,44.59,-28.63
-0.5,-0.31,-0.15,57.61,46.69,-33.74
-0.48,-0.31,-0.16,66.85,47.95,-37.45
-0.47,-0.28,-0.17,76.79,53.27,-36.12
-0.49,-0.23,-0.19,89.46,58.94,-31.43
-0.56,-0.1,-0.2,90.58,59.78,-32.9
-0.62,0.02,-0.16,78.05,52.78,-40.25
-0.71,0.21,-0.13,54.04,37.94,-48.58
-0.77,0.32,-0.15,42.98,35.7,-55.02
-0.79,0.37,-0.15,28.63,36.82,-56.63
-0.79,0.37,-0.21,24.36,36.19,-57.05
-0.91,0.34,-0.27,22.12,33.46,-49.56
-0.99,0.35,-0.29,17.43,35.77,-36.96
-1.05,0.38,-0.27,10.57,39.62,-29.82
-1.13,0.37,-0.2,4.62,36.75,-29.68
-1.18,0.37,-0.09,4.48,31.01,-35.28
-1.18,0.31,0,15.47,19.04,-41.3
-1.16,0.37,0.06,26.32,-0.77,-47.04
-1.16,0.52,0.18,20.3,-22.61,-54.32
-1.15,0.6,0.21,3.01,-31.36,-57.75
-1.17,0.58,0.18,-17.85,-31.78,-50.19
-1.26,0.47,0.13,-35.56,-24.08,-38.64
-1.3,0.31,0.1,-40.39,-6.58,-26.81
-1.24,0.11,0.19,-35.21,1.61,-16.17
-1.17,-0.07,0.24,-8.96,9.52,-7.28
-1.12,-0.1,0.27,12.88,14.35,0.28
-1.04,-0.1,0.26,20.09,15.75,4.83
-0.98,-0.19,0.16,16.66,24.01,16.59
-1.11,-0.28,0.01,8.89,34.93,27.86
-1.42,-0.33,-0.3,8.68,39.83,31.36
-1.66,-0.2,-0.53,11.48,28.63,23.03
-1.52,-0.04,-0.74,15.82,16.24,15.26
-1.4,0.06,-0.78,19.04,-1.82,12.04
-1.08,0.04,-0.52,15.47,-16.52,22.82
-0.89,-0.14,-0.22,17.15,3.57,43.61
-1.08,-0.04,-0.37,31.99,20.72,60.83
-1.22,0.05,-0.74,28.98,10.92,62.16
-1.39,0.16,-0.77,0.84,7,51.52
-1.77,0.14,-0.71,-14.84,0.49,38.85
-1.73,0.24,-0.44,-10.99,-17.92,20.51
-1.5,0.29,-0.37,-17.22,-19.46,-2.94
-1.09,0.1,-0.51,-36.19,-17.43,-23.03
-0.83,-0.18,-0.9,-33.74,-12.39,-34.79
-0.63,-0.42,-1.02,-23.45,-9.03,-45.36
-0.68,-0.59,-1.01,-14.7,-1.26,-52.85
-0.82,-0.62,-0.62,-21.7,10.36,-52.36
-1.08,-0.59,-0.22,-29.12,32.55,-49.21
-1.23,-0.53,-0.05,-19.6,37.38,-45.22
-1.21,-0.47,-0.09,1.54,27.02,-40.11
-1.05,-0.4,-0.29,24.64,14.07,-34.23
-0.87,-0.35,-0.41,35,7.49,-28.56
-0.78,-0.28,-0.4,32.34,8.19,-25.2
-0.8,-0.24,-0.32,28.98,16.38,-23.17
-0.9,-0.18,-0.24,29.68,20.09,-22.68
-0.93,-0.11,-0.22,32.97,19.81,-22.68
-0.92,-0.03,-0.25,34.09,17.64,-23.1
-0.89,0.05,-0.28,31.08,15.47,-24.5
-0.89,0.14,-0.26,24.78,13.51,-26.53
-0.89,0.22,-0.21,17.01,12.53,-27.51
-0.9,0.26,-0.15,10.08,10.57,-27.09
-0.92,0.26,-0.09,3.43,7.35,-24.01
-0.94,0.25,-0.05,-3.29,3.22,-19.04
-0.97,0.26,-0.04,-8.12,-1.33,-13.51
-0.97,0.26,-0.05,-12.81,-6.93,-9.94
-0.95,0.22,-0.1,-14.21,-13.51,-8.61
-0.89,0.17,-0.17,-14.49,-19.6,-10.36
-0.79,0.14,-0.24,-16.94,-22.96,-12.67
-0.75,0.12,-0.26,-22.26,-20.79,-14.21
-0.76,0.13,-0.2,-22.47,-17.57,-12.04
-0.84,0.16,-0.11,-16.03,-14.14,-7.7
-0.88,0.19,0,-11.76,-13.58,-2.52
-0.89,0.22,0.04,-10.85,-15.4,2.03
-0.88,0.19,0.03,-12.67,-19.18,4.9
-0.84,0.15,-0.03,-17.08,-25.76,4.55
-0.73,0.04,-0.12,-19.46,-31.57,2.94
-0.66,-0.02,-0.19,-17.64,-31.78,1.96
-0.64,-0.04,-0.25,-17.99,-30.38,-0.56
-0.64,-0.07,-0.28,-16.38,-29.12,-1.68
-0.66,-0.09,-0.23,-12.81,-25.97,0.49
-0.73,-0.06,-0.17,-6.44,-19.53,4.06
-0.84,-0.02,-0.19,1.19,-17.29,5.95
-0.85,-0.01,-0.43,5.04,-25.2,5.81
-0.78,-0.02,-0.52,3.99,-31.43,3.64
-0.74,-0.04,-0.5,2.94,-29.61,4.41
-0.78,0.02,-0.37,-1.33,-19.46,7
-0.89,0.14,-0.22,-7.63,-8.61,9.94
-0.97,0.23,-0.18,-15.47,-5.6,12.25
-0.97,0.29,-0.22,-20.86,-11.41,11.76
-0.96,0.27,-0.29,-20.3,-19.32,10.92
-0.99,0.26,-0.3,-19.81,-23.1,6.93
-1.05,0.26,-0.32,-22.54,-26.95,2.66
-1.21,0.3,-0.36,-27.51,-38.57,0.84
-1.41,0.34,-0.43,-37.17,-48.02,1.05
-1.64,0.34,-0.48,-51.31,-49.63,7.21
-1.82,0.22,-0.51,-58.1,-44.24,17.99
-1.86,0.06,-0.49,-56.42,-41.02,32.2
-1.75,-0.04,-0.49,-53.9,-45.29,48.93
-1.65,-0.13,-0.52,-52.78,-56.56,66.22
-1.63,-0.22,-0.56,-43.47,-68.74,87.43
-1.58,-0.38,-0.57,-26.39,-63.84,109.2
-1.59,-0.6,-0.51,-12.11,-49.77,123.13
-1.67,-0.65,-0.28,7.77,-43.68,134.54
-1.55,-0.57,-0.07,22.47,-46.55,133.91
-1.32,-0.3,-0.01,25.06,-42.56,125.51
-0.88,-0.24,-0.05,23.1,-22.19,116.76
-1.13,-0.14,-0.08,24.22,-37.24,108.01
-0.96,-0.05,-0.18,14.56,-39.27,87.85
-0.95,-0.03,-0.16,6.44,-39.13,69.37
-0.93,-0.09,-0.17,-0.49,-38.22,50.82
-0.82,-0.2,-0.18,-7.49,-31.92,30.17
-0.75,-0.26,-0.16,-13.23,-28.14,16.8
-0.64,-0.29,-0.11,-17.22,-23.45,6.02
-0.59,-0.32,-0.07,-16.59,-18.41,-0.77
-0.55,-0.32,-0.08,-9.73,-12.18,-3.29
-0.54,-0.31,-0.12,-3.78,-5.81,-4.2
-0.55,-0.29,-0.13,1.82,-0.21,-5.25
-0.59,-0.27,-0.13,5.81,5.6,-8.47
-0.63,-0.26,-0.12,9.73,10.01,-12.53
-0.63,-0.27,-0.11,13.09,15.12,-18.13
-0.59,-0.28,-0.12,20.09,20.3,-22.33
-0.53,-0.29,-0.13,25.34,26.88,-26.6
-0.5,-0.28,-0.14,28.91,34.09,-30.59
-0.51,-0.28,-0.14,32.48,40.11,-53.06
-0.51,-0.27,-0.16,37.52,44.87,-39.97
-0.53,-0.25,-0.16,43.68,49.35,-42.91
-0.54,-0.21,-0.18,49.49,53.97,-42.7
-0.56,-0.15,-0.19,56.7,56.56,-39.76
-0.62,-0.08,-0.19,62.09,55.3,-38.99
-0.64,0,-0.18,62.23,53.2,-40.39
-0.74,0.07,-0.14,55.93,45.57,-41.86
-0.81,0.16,-0.14,46.76,39.48,-45.5
-0.87,0.19,-0.17,39.13,35.21,-49.84
-0.89,0.22,-0.2,30.24,29.89,-54.46
-0.88,0.24,-0.22,28.84,23.59,-63.14
-0.96,0.24,-0.24,26.88,17.92,-63.7
-0.91,0.29,-0.27,19.53,25.13,-59.15
-0.95,0.3,-0.25,11.76,30.8,-53.97
-1.02,0.28,-0.17,3.01,31.43,-51.38
-1.04,0.3,-0.07,-3.92,28.63,-49.77
-1.03,0.33,-0.03,-5.81,24.08,-52.15
-0.98,0.39,-0.02,-6.44,13.02,-58.73
-0.98,0.43,-0.03,-11.9,3.78,-62.02
-1.01,0.4,-0.01,-17.36,-5.25,-61.67
-1.07,0.31,0,-26.67,-8.61,-61.6
-1.14,0.2,0,-30.38,-8.82,-62.37
-1.15,0.08,0.02,-31.08,-7,-60.27
-1.13,-0.02,0.08,-27.86,-2.94,-55.02
-1.08,-0.13,0.18,-15.82,3.15,-47.25
-1.05,-0.12,0.26,-5.39,8.82,-37.38
-0.99,-0.13,0.28,7.21,13.44,-25.69
-0.9,-0.09,0.23,18.83,13.16,-14.63
-0.85,-0.08,0.02,23.87,10.36,-7.07
-0.81,-0.07,0.08,27.72,13.16,-1.96
-0.88,-0.02,0.03,25.55,25.27,10.08
-1.06,-0.06,-0.05,19.25,35.91,20.65
-1.51,-0.2,-0.23,22.26,42.91,22.61
-1.85,-0.25,-0.4,52.22,38.71,14.35
-1.75,-0.16,-0.52,42,25.2,-0.42
-1.35,-0.08,-0.67,38.15,0,-13.37
-0.89,-0.11,-0.57,23.59,-13.3,-10.22
-0.65,-0.37,-0.45,9.38,2.03,21.56
-0.93,-0.25,-0.57,10.92,20.09,43.05
-1.59,0.01,-0.72,8.05,24.22,51.73
-2.17,0.21,-0.71,-25.83,19.95,57.47
-2.59,0.41,-0.46,-13.72,3.92,59.99
-2.19,1.07,0.19,18.55,-0.07,55.37
-1.61,1.29,0.27,-11.83,-20.09,32.48
-1.21,0.55,-0.16,-59.36,-58.1,24.57
-0.59,-0.07,-1.03,-26.88,-71.61,38.92
-0.07,-0.78,-1.61,20.02,-71.61,37.66
-0.04,-1.33,-1.89,99.47,-48.02,2.03
-0.21,-1.55,-1.76,60.69,10.78,-60.13
-0.34,-1.32,-0.67,-29.19,66.5,-68.04
-0.78,-1.27,-0.01,-46.34,95.62,-38.22
-1.29,-0.93,0.08,-20.72,95.97,-35.49
-1.46,-0.48,0,16.38,64.47,-38.5
-1.38,-0.14,-0.09,37.87,28.07,-37.1
-1.3,0.11,-0.19,36.68,9.31,-32.69
-1.27,0.31,-0.23,15.96,3.29,-30.03
-1.21,0.45,-0.21,1.4,1.12,-30.59
-1.12,0.26,-0.26,6.02,-3.08,-36.82
-0.92,0.03,-0.33,13.65,-6.44,-41.93
-0.68,-0.17,-0.41,12.95,1.89,-44.1
-0.64,-0.32,-0.43,1.75,10.01,-47.18
-0.68,-0.39,-0.38,-9.24,15.26,-49
-0.79,-0.38,-0.3,-12.53,18.27,-47.95
-0.91,-0.31,-0.23,-5.81,20.09,-45.01
-1,-0.15,-0.19,5.04,18.9,-42.35
-1.01,-0.01,-0.15,14.56,12.74,-38.92
-0.97,0.11,-0.12,17.22,6.16,-35
-0.97,0.2,-0.11,12.18,-0.35,-31.71
-0.99,0.28,-0.09,4.83,-5.18,-28.07
-1.03,0.35,-0.07,-2.66,-9.17,-23.73
-1.03,0.39,-0.07,-8.33,-12.88,-18.83
-0.99,0.35,-0.14,-9.38,-18.48,-15.54
-0.84,0.27,-0.21,-10.78,-24.92,-13.86
-0.76,0.18,-0.24,-16.45,-25.83,-12.53
-0.71,0.12,-0.22,-24.29,-22.33,-11.41
-0.74,0.08,-0.13,-27.65,-17.29,-9.94
-0.77,0.07,-0.04,-26.39,-15.33,-7.84
-0.78,0.07,-0.02,-26.32,-18.48,-8.05
-0.76,0.03,-0.05,-26.81,-23.8,-11.06
-0.78,-0.02,-0.1,-27.44,-28.84,-15.61
-0.85,-0.06,-0.18,-27.02,-31.78,-18.2
-0.93,-0.06,-0.29,-28.49,-35.42,-18.2
-0.95,-0.05,-0.34,-28.63,-35.7,-17.64
-0.9,-0.04,-0.33,-27.72,-33.18,-17.22
-0.81,-0.06,-0.32,-27.37,-29.05,-16.52
-0.72,-0.07,-0.27,-26.11,-21.98,-14.49
-0.67,-0.07,-0.22,-21.21,-19.32,-9.24
-0.64,-0.09,-0.26,-13.58,-22.75,-2.87
-0.64,-0.13,-0.36,-6.23,-26.11,0.42
-0.64,-0.19,-0.48,0.98,-25.13,-2.87
-0.65,-0.26,-0.57,8.19,-21.42,-11.76
-0.74,-0.28,-0.58,9.73,-14.56,-21.7
-0.91,-0.21,-0.5,6.44,-5.6,-31.57
-1.05,-0.12,-0.36,-0.35,-1.26,-38.64
-1.14,0.02,-0.24,-6.79,-0.07,-42.21
-1.15,0.15,-0.18,-11.27,-0.49,-42.98
-1.14,0.26,-0.14,-13.16,-1.26,-40.88
-1.17,0.35,-0.15,-11.13,-8.68,-36.82
-1.17,0.37,-0.12,-9.52,-19.88,-34.3
-1.16,0.38,-0.03,-10.08,-30.52,-28.21
-1.23,0.43,0.03,-15.05,-39.06,-18.55
-1.38,0.52,0.05,-23.03,-51.8,-7.49
-1.52,0.6,-0.09,-37.31,-74.62,2.31
-1.6,0.61,-0.19,-52.5,-92.68,33.39
-1.68,0.46,-0.38,-66.01,-106.19,35.35
-1.68,0.22,-0.61,-61.53,-117.25,54.39
-1.54,-0.05,-0.81,-46.62,-114.87,80.71
-1.45,-0.23,-0.91,-41.23,-114.59,113.96
-1.54,-0.33,-1.07,-56.28,-107.38,135.17
-1.42,-0.54,-1.13,-64.61,-86.66,146.09
-1.22,-0.43,-0.87,-71.4,-46.69,142.31
-0.96,-0.2,-0.64,-64.68,9.1,146.93
-1.17,-0.15,-0.26,-86.24,-17.43,127.12
-1.11,0.02,-0.43,-83.37,-30.45,107.03
-0.89,-0.08,-0.49,-92.75,-29.68,82.67
-0.79,-0.33,-0.45,-94.5,-21.56,63.91
-0.73,-0.51,-0.45,-89.39,-11.27,56.49
-0.86,-0.57,-0.42,-79.31,-3.92,59.36
-1.02,-0.5,-0.43,-70.07,4.2,67.06
-1.12,-0.38,-0.43,-65.31,11.27,74.34
-1.09,-0.29,-0.44,-65.03,13.09,75.18
-1.02,-0.21,-0.38,-65.38,11.27,68.67
-0.92,-0.16,-0.22,-69.44,12.46,57.19
-0.86,-0.14,-0.16,-78.19,14.35,43.26
-0.76,-0.16,-0.1,-88.76,17.92,25.13
-0.7,-0.21,-0.09,-100.45,20.65,10.99
-0.63,-0.28,-0.1,-106.82,21.91,-2.52
-0.55,-0.37,-0.11,-108.99,22.33,-14.35
-0.49,-0.43,-0.11,-107.52,25.13,-24.15
-0.43,-0.47,-0.15,-104.65,29.05,-32.06
-0.36,-0.51,-0.17,-97.02,33.81,-37.73
-0.32,-0.52,-0.17,-86.38,38.22,-38.15
-0.32,-0.53,-0.18,-73.01,45.29,-36.05
-0.37,-0.52,-0.16,-57.26,49.56,-33.6
-0.45,-0.49,-0.13,-38.22,52.36,-33.11
-0.58,-0.47,-0.09,-28,48.93,-36.54
-0.66,-0.41,-0.04,-20.79,51.31,-39.62
-0.77,-0.34,-0.01,-19.46,56.84,-43.82
-0.95,-0.22,0.01,-20.93,57.54,-44.24
-1.23,-0.06,0.03,-23.17,50.68,-42.42
-1.42,0.15,0.11,-34.37,36.26,-32.55
-1.52,0.37,0.2,-43.75,29.75,-27.23
-1.6,0.62,0.35,-47.46,26.25,-28.91
-1.62,0.85,0.28,-47.39,32.97,-37.03
-1.76,1.01,0.16,-46.48,36.33,-41.02
-1.77,1.11,0.08,-40.6,23.8,-34.3
-1.67,1.08,0.04,-31.22,7.7,-22.05
-1.48,0.99,0.04,-24.92,-0.28,-10.99
-1.33,0.87,-0.06,-31.71,4.2,-4.13
-1.23,0.73,-0.19,-44.03,11.69,-0.63
-1.14,0.53,-0.25,-55.79,18.41,-3.71
-1.08,0.23,-0.29,-62.37,18.41,-11.9
-1.1,-0.03,-0.34,-62.93,7.42,-22.19
-1.25,-0.25,-0.36,-60.9,-5.53,-29.96
-1.37,-0.37,-0.31,-63.42,-8.96,-26.88
-1.47,-0.35,-0.24,-54.39,-11.9,-11.83
-1.54,-0.23,-0.03,-36.33,-14.49,2.1
-1.52,-0.02,0.02,-17.5,-10.57,8.12
-1.35,-0.01,-0.05,-1.19,-19.95,12.74
-0.86,-0.14,-0.22,8.4,-51.94,10.29
-0.49,-0.39,-0.38,18.9,-65.8,1.12
-0.2,-0.58,-0.54,31.5,-64.19,-3.71
-0.2,-0.69,-0.63,46.27,-38.64,-9.38
-0.27,-0.86,-0.65,59.64,-8.19,-27.72
-0.45,-0.86,-0.84,35.91,9.59,-60.69
-0.51,-0.7,-0.94,2.94,39.2,-76.37
-0.68,-0.46,-0.92,-30.94,61.88,-79.73
-1.02,-0.34,-0.78,-46.06,43.68,-76.79
-1.17,-0.2,-0.68,-41.02,7.42,-72.1
-1.07,-0.04,-0.5,-41.58,-8.75,-77.91
-1.03,0.04,-0.42,-42.28,-8.82,-80.22
-1.08,0.14,-0.35,-34.44,-6.23,-78.33
-1.01,0.08,-0.32,-20.16,8.75,-72.24
-0.95,0.01,-0.38,-11.2,17.85,-67.76
-0.87,-0.09,-0.47,1.05,20.51,-63.7
-0.82,-0.28,-0.53,18.34,21.56,-58.31
-0.81,-0.33,-0.57,22.61,17.36,-56.91
-0.76,-0.39,-0.53,19.88,18.41,-60.55
-0.73,-0.41,-0.43,14,23.66,-65.38
-0.79,-0.44,-0.32,5.25,26.18,-70.77
-0.83,-0.45,-0.27,-6.16,24.57,-77.77
-0.89,-0.41,-0.24,-16.03,25.06,-82.81
-0.92,-0.34,-0.2,-19.18,27.93,-83.37
-0.97,-0.27,-0.19,-19.11,29.4,-81.62
-0.98,-0.18,-0.19,-16.87,30.24,-78.47
-0.98,-0.12,-0.21,-14.49,27.44,-76.16
-0.95,-0.02,-0.2,-14.98,22.05,-74.69
-0.87,-0.02,-0.28,-9.73,17.71,-73.15
-0.86,0,-0.32,-13.79,15.12,-73.15
-0.88,0,-0.39,-26.46,9.94,-74.2
-0.87,-0.07,-0.41,-38.85,10.5,-74.76
-0.89,-0.16,-0.41,-45.01,13.09,-74.48
-0.9,-0.22,-0.42,-48.72,12.95,-74.69
-0.89,-0.25,-0.39,-47.39,13.86,-75.32
-0.89,-0.27,-0.38,-45.71,13.23,-76.51
-0.88,-0.28,-0.34,-43.68,13.23,-77.35
-0.88,-0.27,-0.31,-41.16,13.65,-78.96
-0.88,-0.25,-0.29,-38.5,13.02,-79.52
-0.89,-0.22,-0.3,-35.14,12.11,-78.19
-0.9,-0.22,-0.34,-31.57,11.2,-76.86
-0.9,-0.22,-0.39,-27.09,10.71,-77
-0.89,-0.21,-0.43,-23.73,10.08,-76.72
-0.89,-0.21,-0.45,-23.31,9.45,-75.95
-0.9,-0.19,-0.46,-25.69,8.82,-74.83
-0.94,-0.14,-0.43,-31.01,7.21,-70.77
-0.99,-0.12,-0.34,-37.8,4.9,-66.29
-1.09,-0.09,-0.25,-43.96,1.19,-62.23
-1.14,-0.09,-0.16,-47.18,-0.77,-55.93
-1.16,-0.15,-0.09,-43.26,-1.61,-48.3
-1.18,-0.23,-0.07,-36.54,-4.9,-39.06
-1.19,-0.3,-0.14,-26.25,-10.71,-26.32
-1.15,-0.25,-0.2,-19.11,-16.38,-14.7
-1.14,-0.33,-0.36,-7.77,-22.96,-13.79
-1.06,-0.3,-0.37,-9.31,-32.62,-16.94
-1.12,-0.19,-0.46,-12.74,-33.95,-16.17
-1.2,-0.11,-0.51,-18.2,-32.62,-17.5
-1.31,-0.02,-0.5,-22.82,-35.56,-19.6
-1.38,0.1,-0.41,-26.04,-44.73,-17.01
-1.43,0.24,-0.34,-29.61,-54.81,-11.97
-1.51,0.26,-0.26,-31.99,-69.44,-5.04
-1.56,0.24,-0.16,-29.75,-89.32,4.69
-1.53,0.24,-0.15,-25.83,-114.38,16.66
-1.41,0.16,-0.23,-31.01,-130.9,26.11
-1.12,0.11,-0.34,-52.57,-128.31,34.79
-0.95,-0.05,-0.41,-62.79,-117.04,46.27
-0.85,-0.11,-0.45,-68.25,-116.76,57.89
-0.78,-0.16,-0.51,-70.63,-113.82,68.53
-0.76,-0.16,-0.55,-73.71,-109.27,78.26
-0.81,-0.14,-0.61,-82.32,-105.21,82.6
-0.84,-0.13,-0.72,-92.96,-100.94,87.08
-0.89,-0.18,-0.81,-100.94,-95.41,93.87
-0.93,-0.23,-0.82,-105.98,-93.17,98.21
-1.02,-0.18,-0.87,-126,-89.6,96.39
-1.02,-0.28,-0.86,-131.67,-78.82,94.22
-0.97,-0.43,-0.96,-119.35,-66.5,92.19
-0.79,-0.56,-1.16,-74.83,-48.51,103.95
-0.82,-0.39,-0.85,-51.24,-16.59,120.89
-0.86,-0.44,-0.76,-51.1,-3.22,121.87
-0.95,-0.27,-0.63,-67.76,-9.52,116.34
-0.95,-0.17,-0.53,-75.53,-7.28,113.12
-1.01,-0.1,-0.45,-76.23,-11.48,109.9
-1.04,-0.09,-0.44,-79.52,-18.34,107.38
-1,-0.11,-0.4,-82.53,-22.33,98.84
-0.94,-0.08,-0.47,-94.43,-23.59,89.39
-0.89,-0.11,-0.52,-106.82,-19.6,77.14
-0.85,-0.17,-0.52,-115.15,-14.63,67.27
-0.8,-0.23,-0.49,-118.79,-12.95,59.85
-0.79,-0.26,-0.47,-123.27,-13.79,51.59
-0.76,-0.3,-0.45,-126.28,-13.72,44.31
-0.71,-0.33,-0.44,-131.6,-12.46,36.19
-0.64,-0.35,-0.43,-134.54,-7.91,28.14
-0.59,-0.41,-0.43,-135.17,-3.78,18.69
-0.55,-0.46,-0.42,-132.3,0.77,12.04
-0.5,-0.51,-0.42,-127.4,4.41,5.11
-0.48,-0.53,-0.38,-119.28,8.19,-2.17
-0.46,-0.55,-0.33,-110.81,11.55,-8.61
-0.47,-0.54,-0.27,-102.97,14.84,-14.98
-0.49,-0.54,-0.23,-95.13,17.64,-22.33
-0.54,-0.53,-0.18,-83.72,18.76,-26.11
-0.62,-0.52,-0.13,-72.17,18.83,-29.05
-0.69,-0.52,-0.08,-60.55,19.39,-32.06
-0.77,-0.49,-0.05,-50.33,20.86,-34.44
-0.84,-0.4,-0.02,-46.06,22.4,-35.07
-0.95,-0.29,0.03,-45.78,21.91,-34.3
-0.99,-0.12,-0.03,-48.79,24.85,-35
-1.13,0.01,-0.07,-45.99,25.48,-34.3
-1.26,0.2,-0.03,-44.1,17.64,-29.4
-1.26,0.4,0.02,-39.13,15.4,-22.54
-1.23,0.57,0.03,-38.64,23.38,-16.17
-1.27,0.72,-0.02,-43.96,31.71,-12.67
-1.33,0.86,-0.1,-49.98,36.47,-9.03
-1.39,1,-0.19,-54.11,33.46,2.8
-0.59,-0.42,-0.16,-38.22,4.83,40.67
-0.56,-0.35,-0.14,-36.61,10.85,27.79
-0.67,-0.29,-0.03,-32.48,13.23,20.44
-0.8,-0.21,-0.01,-26.53,21.98,3.64
-0.95,-0.25,0.03,-35.21,13.65,7.28
-1.03,-0.23,0,-41.37,20.79,-3.64
-1.06,-0.23,-0.02,-48.65,24.08,-13.93
-1.01,-0.27,-0.04,-52.43,23.87,-25.55
-0.86,-0.36,-0.03,-48.72,24.71,-31.57
-0.72,-0.39,-0.04,-41.23,27.02,-34.72
-0.59,-0.39,-0.03,-35.63,30.45,-36.26
-0.47,-0.4,-0.03,-30.52,36.4,-35.98
-0.41,-0.43,-0.06,-23.1,41.86,-34.58
-0.37,-0.45,-0.05,-13.23,44.94,-32.41
-0.35,-0.46,-0.05,0.35,46.9,-29.96
-0.35,-0.44,-0.05,13.72,49.7,-29.12
-0.37,-0.38,-0.02,21.35,53.62,-29.54
-0.42,-0.3,0.02,24.01,53.9,-29.19
-0.52,-0.18,0.05,22.26,50.68,-32.55
-0.62,-0.07,0.09,13.79,44.94,-40.04
-0.67,0.02,0.11,0.07,39.41,-48.79
-0.73,0.11,0.05,-5.39,35,-55.02
-0.77,0.16,-0.01,-2.59,31.57,-55.3
-0.79,0.22,-0.06,0,31.01,-53.62
-0.82,0.21,-0.16,4.41,33.11,-53.83
-1,0.16,-0.16,3.01,27.86,-52.29
-1.01,0.26,-0.22,-6.09,40.18,-39.13
-1.22,0.28,-0.23,-12.81,47.46,-27.16
-1.37,0.34,-0.15,-17.01,42.56,-28.77
-1.41,0.44,-0.01,-24.43,32.13,-34.65
-1.32,0.54,0.2,-23.24,24.99,-40.67
-1.36,0.72,0.4,-18.27,17.99,-41.44
-1.35,0.75,0.56,-15.19,8.4,-37.94
-1.29,0.64,0.56,-16.52,-4.83,-33.6
-1.23,0.53,0.5,-16.87,-12.39,-26.53
-1.18,0.39,0.4,-11.76,-14.91,-16.52
-1.1,0.26,0.34,-5.25,-10.57,-7.98
-1.11,0.1,0.37,3.78,1.05,0.49
-1.29,0.08,0.43,0.49,26.81,16.38
-1.78,-0.11,0.39,-0.14,47.46,27.65
-2.17,-0.17,0.23,10.15,59.85,33.67
-1.82,-0.34,-0.57,9.45,43.96,33.11
-1.01,-0.5,-1.81,-20.16,-34.51,24.15
0,-0.86,-1.52,-11.9,-38.01,7.7
0.13,-1.18,-1.31,21.21,-14.7,1.05
-0.34,-0.38,-0.86,-8.61,-46.13,-16.03
-1.28,-0.02,-0.37,-70.91,-3.57,-6.44
-2.82,0.16,0.06,-120.75,20.09,0.42
-2.59,0.83,-0.01,-42.49,34.79,3.29
-1.69,0.66,-0.61,-45.36,-15.82,-10.5
-1.16,-0.01,-1.37,-15.26,-54.88,-19.95
-0.66,-0.29,-1.6,22.89,-51.24,-28.49
-0.54,-0.7,-1.48,16.1,-35.14,-57.82
-0.6,-0.9,-1.22,-17.71,16.87,-86.38
-0.76,-0.97,-0.77,-62.86,55.09,-99.75
-0.94,-1,-0.4,-75.53,64.75,-93.59
-1.15,-0.93,-0.54,-49.91,49.42,-92.05
-1.09,-0.75,-0.64,-21.7,37.38,-92.68
-1.05,-0.56,-0.59,-0.7,37.94,-84.84
-1.08,-0.44,-0.46,9.59,40.67,-77.91
-1.14,-0.35,-0.32,7,51.03,-74.55
-1.22,-0.26,-0.18,-2.24,56.14,-75.95
-1.25,-0.21,-0.09,-12.95,50.05,-79.17
-1.16,-0.21,-0.06,-12.46,37.24,-80.57
-1.04,-0.19,-0.09,-6.23,24.36,-78.47
-0.9,-0.16,-0.09,1.89,16.24,-74.48
-0.82,-0.11,-0.11,5.18,10.92,-71.19
-0.68,-0.06,-0.16,3.64,13.37,-67.69
-0.63,-0.03,-0.22,-2.17,15.68,-65.03
-0.6,-0.02,-0.26,-9.1,18.13,-65.38
-0.62,-0.02,-0.27,-15.05,19.46,-67.9
-0.65,-0.05,-0.26,-18.83,21.14,-71.47
-0.68,-0.09,-0.23,-22.4,22.61,-74.34
-0.7,-0.12,-0.23,-24.64,21.98,-76.86
-0.7,-0.14,-0.24,-24.71,21.21,-78.33
-0.71,-0.15,-0.25,-23.38,20.16,-80.22
-0.71,-0.15,-0.27,-21.98,17.78,-81.83
-0.72,-0.16,-0.32,-21.14,14.84,-83.65
-0.73,-0.16,-0.38,-22.4,12.95,-86.94
-0.76,-0.18,-0.44,-26.39,11.76,-90.93
-0.81,-0.19,-0.49,-34.09,10.57,-94.85
-0.84,-0.21,-0.5,-42.77,10.71,-97.02
-0.89,-0.24,-0.52,-52.85,12.67,-96.25
-0.94,-0.26,-0.44,-52.5,16.66,-91.56
-1,-0.29,-0.33,-49.7,22.47,-85.33
-1.07,-0.3,-0.22,-46.2,25.9,-79.24
-1.14,-0.33,-0.12,-43.89,27.86,-76.65
-1.2,-0.4,0.02,-33.18,29.05,-71.75
-1.28,-0.45,0.1,-11.06,22.33,-62.58
-1.33,-0.47,0.06,8.82,10.99,-49
-1.3,-0.42,-0.12,25.27,3.92,-35.91
-1.29,-0.4,-0.23,36.12,-3.57,-30.59
-1.26,-0.25,-0.3,44.52,-14.21,-25.13
-1.21,-0.1,-0.37,46.41,-20.16,-23.87
-1.23,0.01,-0.42,44.45,-22.26,-24.85
-1.3,0.11,-0.47,40.74,-27.65,-26.04
-1.38,0.21,-0.52,33.67,-36.05,-26.39
-1.5,0.31,-0.54,20.3,-45.64,-26.67
-1.62,0.39,-0.47,3.43,-57.61,-24.22
-1.67,0.41,-0.33,-17.92,-70.14,-20.72
-1.71,0.36,-0.18,-34.79,-86.73,-15.75
-1.71,0.27,-0.03,-38.01,-110.95,-5.81
-1.57,0.17,-0.04,-35.49,-138.04,10.92
-1.38,0.16,-0.32,-45.64,-155.19,25.97
-1.07,0.14,-0.57,-76.65,-148.75,40.18
-0.98,-0.08,-0.65,-85.68,-137.76,51.94
-0.9,-0.12,-0.66,-88.48,-135.8,64.68
-0.85,-0.15,-0.74,-90.16,-125.09,77.07
-0.84,-0.11,-0.76,-94.78,-114.66,88.97
-0.86,-0.05,-0.78,-108.57,-110.04,99.33
-0.88,-0.02,-0.83,-122.99,-106.33,111.58
-0.93,-0.1,-0.87,-136.85,-100.03,113.75
-0.98,-0.19,-0.89,-140.63,-93.03,112.84
-1.02,-0.41,-0.91,-139.02,-86.59,108.43
-1.01,-0.51,-1.01,-123.97,-85.4,108.85
-0.96,-0.58,-1.01,-108.08,-68.74,116.69
-1.09,-0.54,-0.95,-101.01,-55.44,118.23
-1.06,-0.4,-0.87,-107.73,-52.5,114.94
-0.98,-0.3,-0.82,-115.57,-51.59,108.99
-0.92,-0.15,-0.75,-123.06,-47.25,113.61
-0.9,-0.19,-0.6,-124.6,-54.67,104.93
-0.87,-0.18,-0.61,-123.41,-52.22,101.15
-0.84,-0.15,-0.64,-130.97,-39.76,97.44
-0.8,-0.18,-0.67,-135.38,-31.71,96.46
-0.78,-0.23,-0.69,-139.51,-28.84,93.24
-0.74,-0.27,-0.72,-142.17,-26.88,87.29
-0.73,-0.31,-0.68,-143.71,-25.48,83.16
-0.75,-0.32,-0.67,-153.65,-29.54,73.99
-0.73,-0.34,-0.63,-159.67,-25.55,66.64
-0.76,-0.31,-0.58,-163.45,-22.54,59.36
-0.75,-0.3,-0.55,-167.58,-17.99,52.08
-0.77,-0.3,-0.48,-168.98,-16.17,41.3
-0.76,-0.35,-0.43,-171.15,-17.43,27.72
-0.76,-0.37,-0.38,-169.4,-20.02,16.38
-0.73,-0.42,-0.35,-165.83,-20.79,2.66
-0.71,-0.43,-0.3,-164.57,-20.93,-8.33
-0.65,-0.45,-0.27,-161.56,-21.91,-16.8
-0.63,-0.48,-0.25,-154.07,-21.63,-22.96
-0.59,-0.5,-0.23,-144.83,-19.67,-25.62
-0.58,-0.5,-0.2,-134.96,-17.22,-25.83
-0.59,-0.53,-0.15,-121.45,-11.69,-23.94
-0.62,-0.49,-0.1,-102.76,-4.9,-19.67
-0.63,-0.41,-0.1,-89.95,2.1,-10.29
-0.64,-0.32,-0.12,-81.06,13.16,-2.24
-0.66,-0.2,-0.14,-74.2,21.77,4.97
-0.7,-0.12,-0.16,-66.5,28.84,12.04
-0.74,0,-0.17,-60.76,34.44,19.04
-0.77,0.09,-0.2,-57.47,38.22,23.87
-0.87,0.18,-0.14,-56.49,36.05,27.02
-0.91,0.31,-0.08,-60.34,32.48,23.52
-0.99,0.43,-0.06,-67.13,29.68,12.11
-1.16,0.51,-0.06,-82.25,22.12,4.97
-1.33,0.59,-0.02,-93.03,11.62,-1.82
-1.44,0.7,0.03,-95.97,0.98,-5.39
-1.48,0.8,0,-91.7,-5.6,-3.85
-1.48,0.87,-0.07,-87.5,-8.19,1.05
-1.45,0.86,-0.11,-89.11,-8.61,5.53
-1.34,0.74,-0.18,-97.86,-9.31,3.5
-1.18,0.58,-0.23,-112.35,-10.36,-2.73
-1.05,0.36,-0.24,-126.7,-11.62,-12.32
-0.87,0.11,-0.25,-135.52,-6.58,-23.17
-0.8,-0.12,-0.22,-133.91,0.7,-31.85
-0.78,-0.34,-0.24,-126.28,14.07,-38.85
-0.91,-0.54,-0.25,-111.72,23.24,-45.36
-1.25,-0.57,-0.07,-98.35,21,-43.33
-1.65,-0.45,0.1,-78.12,13.16,-34.3
-1.67,-0.27,0.13,-54.6,14.35,-24.64
-1.6,-0.12,0.18,-28.14,23.8,-27.58
-1.52,-0.06,0.11,-3.99,34.16,-37.31
-1.52,-0.07,-0.05,-4.76,47.6,-40.53
-1.47,-0.28,-0.39,-26.32,51.1,-28.21
-1.1,-0.5,-0.77,-24.5,16.52,-9.38
-0.3,-0.56,-0.83,-2.73,-32.13,-4.06
0.06,-0.5,-0.75,29.05,-45.71,-9.66
0.17,-0.5,-0.53,64.75,-17.78,-19.46
0.01,-0.53,-0.45,90.3,12.39,-27.16
-0.29,-0.56,-0.5,100.94,34.93,-37.45
-0.67,-0.52,-0.51,84.77,41.86,-48.3
-0.99,-0.43,-0.56,42.56,38.71,-59.15
-1.24,-0.36,-0.61,12.81,29.33,-67.41
-1.31,-0.17,-0.64,-16.87,28.77,-72.87
-1.4,0.12,-0.71,-45.15,32.06,-81.34
-1.21,0.2,-0.66,-63.56,15.05,-89.46
-1,0.22,-0.54,-56.35,7.63,-95.62
-0.79,0.11,-0.42,-38.92,12.88,-89.67
-0.72,0.06,-0.36,-28.21,22.26,-80.15
-0.75,-0.09,-0.41,-14.42,23.94,-69.93
-0.79,-0.29,-0.37,3.22,26.81,-63.91
-0.87,-0.37,-0.36,20.72,27.86,-61.81
-0.91,-0.42,-0.31,24.29,30.31,-66.57
-0.95,-0.45,-0.26,19.88,31.29,-73.08
-0.92,-0.42,-0.25,18.41,31.43,-76.65
-0.89,-0.32,-0.26,15.68,32.2,-78.26
-0.85,-0.19,-0.25,10.64,30.45,-78.75
-0.85,-0.12,-0.25,3.78,26.88,-79.17
-0.92,-0.05,-0.3,-11.76,18.76,-82.32
-0.91,0,-0.29,-28.14,16.45,-87.43
-0.93,-0.05,-0.28,-34.3,20.72,-90.72
-0.94,-0.05,-0.26,-35.42,27.3,-90.93
-0.96,-0.05,-0.23,-36.19,32.97,-89.67
-0.94,-0.06,-0.25,-36.75,32.55,-86.31
-0.92,-0.08,-0.25,-37.03,29.33,-82.11
-0.85,-0.15,-0.28,-31.85,24.36,-77.56
-0.81,-0.19,-0.29,-33.46,18.2,-72.45
-0.83,-0.23,-0.29,-35.56,13.37,-69.65
-0.86,-0.24,-0.28,-34.79,12.67,-65.87
-0.92,-0.24,-0.27,-31.78,13.09,-61.04
-0.98,-0.23,-0.27,-24.71,13.65,-59.64
-0.99,-0.22,-0.29,-13.93,14.07,-59.64
-0.95,-0.22,-0.32,-6.79,14.21,-59.92
-0.9,-0.23,-0.36,-3.22,15.54,-61.32
-0.84,-0.25,-0.38,-4.13,17.5,-65.45
-0.79,-0.29,-0.38,-9.73,17.5,-70
-0.78,-0.29,-0.37,-15.61,14.98,-73.29
-0.82,-0.28,-0.35,-18.41,12.32,-74.48
-0.9,-0.3,-0.37,-17.99,11.2,-75.18
-0.96,-0.32,-0.41,-14.98,10.85,-75.39
-1,-0.34,-0.44,-12.32,9.38,-73.92
-1.02,-0.29,-0.45,-15.33,6.65,-71.33
-1.05,-0.14,-0.38,-12.46,5.95,-65.03
-1.04,-0.23,-0.24,-15.4,9.38,-59.5
-1.07,-0.28,-0.15,-12.04,18.76,-52.71
-1.13,-0.35,-0.15,17.43,16.03,-43.05
-1.11,-0.35,-0.3,11.48,10.57,-36.05
-1.1,-0.36,-0.36,19.18,3.92,-36.4
-1.12,-0.36,-0.37,28.07,-10.15,-37.17
-1.14,-0.31,-0.37,29.54,-16.1,-36.12
-1.22,-0.2,-0.41,31.99,-20.09,-31.15
-1.33,-0.06,-0.44,34.02,-25.83,-25.76
-1.44,0.15,-0.47,31.43,-37.73,-20.02
-1.51,0.39,-0.45,17.85,-52.01,-15.12
