Accel_x,Accel_y,Accel_z
0.663,0.304,1.099
0.718,0.214,1.095
0.782,0.198,1.107
0.712,0.221,1.115
0.66,0.213,1.066
0.603,0.153,1.007
0.611,0.213,0.867
0.704,0.275,0.752
0.78,0.429,0.734
0.788,0.595,0.682
0.658,0.615,0.63
0.549,0.6,0.618
0.53,0.574,0.677
0.457,0.47,0.547
0.443,0.457,0.421
0.556,0.386,0.748
0.556,0.249,0.738
0.487,0.292,0.602
0.436,0.294,0.574
0.508,0.23,0.61
0.542,0.206,0.589
0.563,0.246,0.564
0.551,0.346,0.604
0.524,0.386,0.624
0.544,0.359,0.619
0.501,0.295,0.637
0.557,0.231,0.607
0.608,0.315,0.601
0.615,0.31,0.562
0.626,0.383,0.6
0.496,0.428,0.636
0.515,0.381,0.655
0.605,0.318,0.597
0.719,0.266,0.499
0.74,0.331,0.459
0.751,0.363,0.485
0.746,0.389,0.469
0.755,0.354,0.441
0.735,0.342,0.397
0.721,0.325,0.399
0.731,0.284,0.398
0.743,0.296,0.41
0.743,0.321,0.419
0.753,0.339,0.446
0.747,0.343,0.449
0.73,0.345,0.456
0.78,0.305,0.442
0.788,0.286,0.429
0.813,0.269,0.414
0.83,0.274,0.379
0.846,0.303,0.368
0.857,0.346,0.361
0.857,0.371,0.343
0.867,0.375,0.351
0.877,0.324,0.361
0.882,0.296,0.376
0.912,0.287,0.379
0.922,0.295,0.402
0.933,0.319,0.433
0.93,0.328,0.448
0.906,0.305,0.505
0.773,0.325,0.531
0.744,0.375,0.555
0.742,0.342,0.584
0.758,0.308,0.573
0.818,0.281,0.593
0.834,0.196,0.583
0.873,0.158,0.572
0.913,0.199,0.568
0.932,0.247,0.545
0.928,0.242,0.53
0.907,0.184,0.516
0.895,0.163,0.485
0.882,0.138,0.468
0.869,0.137,0.468
0.864,0.141,0.457
0.868,0.151,0.456
0.862,0.156,0.45
0.858,0.152,0.453
0.888,0.144,0.46
0.886,0.132,0.457
0.882,0.129,0.467
0.888,0.115,0.469
0.884,0.117,0.473
0.879,0.117,0.462
0.869,0.106,0.457
0.866,0.095,0.452
0.856,0.099,0.449
0.858,0.104,0.451
0.862,0.114,0.461
0.86,0.109,0.475
0.862,0.12,0.473
0.838,0.149,0.446
0.833,0.154,0.419
0.849,0.121,0.411
0.857,0.109,0.4
0.889,0.1,0.409
0.884,0.09,0.416
0.887,0.056,0.442
0.875,0.04,0.457
0.875,0.024,0.463
0.885,0.026,0.476
0.873,0.029,0.47
0.876,0.041,0.472
0.857,0.056,0.447
0.815,0.068,0.44
0.855,0.033,0.453
0.901,-0.024,0.468
0.951,-0.023,0.479
0.942,-0.01,0.475
0.916,-0.025,0.472
0.93,-0.007,0.49
0.932,0.004,0.491
0.953,0.02,0.493
0.96,0.066,0.484
0.936,0.075,0.488
0.944,0.062,0.495
0.949,0.05,0.503
0.962,0.053,0.5
-0.2,1.33,0.572
-0.235,1.388,0.661
-0.245,1.483,0.732
-0.238,1.559,0.915
-0.203,1.59,1.111
-0.148,1.633,1.204
-0.087,1.645,1.367
-0.063,1.629,1.474
-0.02,1.602,1.507
0.024,1.497,1.518
0.059,1.428,1.462
0.169,1.24,1.41
0.235,1.201,1.269
0.395,1.188,1.08
0.534,1.139,0.99
0.594,1.06,0.821
0.656,1.016,0.649
0.664,0.923,0.569
0.636,0.809,0.433
0.529,0.752,0.35
0.371,0.64,0.322
0.18,0.545,0.302
0.086,0.507,0.314
-0.089,0.436,0.327
-0.168,0.369,0.362
-0.296,0.339,0.389
-0.383,0.274,0.396
-0.407,0.201,0.385
-0.427,0.17,0.36
-0.424,0.135,0.353
-0.401,0.131,0.354
-0.376,0.126,0.369
-0.313,0.123,0.386
-0.253,0.126,0.443
-0.224,0.143,0.512
-0.167,0.156,0.591
-0.118,0.201,0.634
-0.096,0.241,0.707
-0.073,0.258,0.758
-0.068,0.277,0.775
-0.098,0.291,0.788
-0.112,0.303,0.792
-0.138,0.311,0.787
-0.158,0.328,0.771
-0.159,0.352,0.767
-0.154,0.364,0.764
-0.145,0.381,0.765
-0.116,0.381,0.768
-0.093,0.373,0.791
-0.048,0.375,0.821
-0.02,0.386,0.836
-0.015,0.399,0.867
-0.002,0.401,0.892
0.015,0.414,0.906
0.038,0.424,0.943
0.047,0.426,0.979
0.06,0.427,0.998
0.063,0.44,1.031
0.063,0.445,1.06
0.064,0.457,1.075
0.063,0.458,1.103
0.055,0.455,1.125
0.038,0.444,1.133
0.03,0.438,1.149
0.019,0.435,1.154
0.013,0.432,1.158
0.014,0.432,1.154
0.014,0.435,1.153
0.013,0.447,1.142
0.01,0.453,1.135
0.003,0.461,1.133
0.007,0.466,1.123
0.02,0.472,1.114
0.028,0.485,1.107
0.03,0.493,1.077
0.037,0.495,1.047
0.056,0.49,1.037
0.066,0.485,1.026
0.084,0.478,1.033
0.104,0.463,1.037
0.111,0.455,1.045
0.113,0.452,1.038
0.108,0.452,1.034
0.106,0.453,1.024
0.109,0.456,1.019
0.114,0.466,1.024
0.12,0.479,1.031
0.124,0.487,1.031
0.117,0.495,1.029
0.109,0.501,1.028
0.094,0.502,1.028
0.081,0.503,1.027
0.078,0.506,1.025
0.084,0.506,1.017
0.092,0.503,1.008
0.107,0.49,0.88
0.12,0.473,0.985
0.131,0.459,0.96
0.133,0.446,0.927
0.14,0.44,0.891
0.148,0.432,0.875
0.151,0.428,0.848
0.153,0.429,0.824
0.148,0.434,0.813
0.147,0.439,0.8
0.147,0.442,0.798
0.148,0.45,0.801
0.151,0.457,0.815
0.16,0.471,0.824
0.159,0.475,0.838
0.16,0.472,0.857
0.156,0.466,0.869
0.148,0.443,0.883
0.144,0.416,0.897
0.141,0.401,0.905
0.152,0.382,0.915
0.16,0.25,0.915
0.174,0.365,0.911
0.191,0.356,0.904
-0.034,0.966,1.083
-0.042,1.034,1.117
-0.043,1.091,1.183
-0.051,1.141,1.212
-0.079,1.167,1.219
-0.127,1.214,1.212
-0.155,1.244,1.191
-0.219,1.255,1.178
-0.29,1.26,1.16
-0.319,1.24,1.139
-0.346,1.221,1.127
-0.323,1.182,1.132
-0.238,1.141,1.16
-0.181,1.121,1.179
-0.049,1.078,1.183
0.014,1.035,1.169
0.13,1.016,1.127
0.238,0.982,1.098
0.283,0.94,1.033
0.346,0.913,0.962
0.364,0.846,0.919
0.359,0.769,0.832
0.329,0.734,0.749
0.278,0.68,0.712
0.239,0.631,0.646
0.15,0.61,0.589
0.055,0.574,0.566
0.009,0.536,0.527
-0.074,0.519,0.493
-0.141,0.482,0.482
-0.166,0.431,0.472
-0.193,0.407,0.493
-0.206,0.369,0.515
-0.203,0.346,0.566
-0.191,0.337,0.621
-0.175,0.317,0.653
-0.167,0.312,0.715
-0.162,0.311,0.763
-0.172,0.318,0.784
-0.182,0.331,0.827
-0.185,0.356,0.869
-0.193,0.368,0.911
-0.186,0.392,0.926
-0.173,0.415,0.956
-0.143,0.427,0.978
-0.122,0.454,0.988
-0.109,0.484,1.003
-0.102,0.62,1.009
-0.084,0.515,1.013
-0.046,0.539,1.017
-0.025,0.548,1.014
0.018,0.547,1.002
0.061,0.537,0.994
0.093,0.526,0.975
0.103,0.515,0.957
0.11,0.506,0.945
0.107,0.488,0.942
0.105,0.479,0.95
0.102,0.472,0.964
0.089,0.455,0.971
0.076,0.44,0.983
0.048,0.432,0.987
0.016,0.425,0.992
0.003,0.424,0.995
-0.013,0.421,1.121
-0.023,0.417,1.003
-0.022,0.417,1.003
-0.016,0.417,1.003
-0.01,0.42,1.001
0.007,0.422,0.999
0.023,0.432,0.999
0.031,0.429,0.996
0.044,0.43,0.991
0.054,0.427,0.981
0.059,0.418,0.97
0.07,0.414,0.963
0.077,0.411,0.949
0.079,0.41,0.936
0.077,0.412,0.93
0.081,0.408,0.919
0.081,0.407,0.915
0.074,0.402,0.914
0.061,0.399,0.907
0.056,0.398,0.899
0.046,0.398,0.892
0.046,0.404,0.888
0.051,0.406,0.879
0.049,0.416,0.874
0.049,0.426,0.874
0.048,0.433,0.874
0.056,0.439,0.872
0.071,0.448,0.874
0.079,0.459,0.88
0.091,0.462,0.889
0.102,0.465,0.893
0.108,0.469,0.903
0.123,0.473,0.907
0.135,0.48,0.915
0.139,0.484,0.921
0.142,0.489,0.924
0.138,0.493,0.929
0.135,0.499,0.93
0.123,0.502,0.931
0.115,0.503,0.935
0.111,0.506,0.94
0.103,0.508,0.941
0.092,0.508,0.948
0.084,0.511,0.948
0.075,0.512,0.946
0.069,0.515,0.942
0.063,0.516,0.935
0.061,0.513,0.93
0.063,0.508,0.922
0.069,0.503,0.916
0.079,0.496,0.913
0.082,0.489,0.905
0.087,0.483,0.89
0.09,0.48,0.881
0.09,0.466,0.87
1.09,-0.619,0.298
1.081,-0.623,0.297
1.083,-0.639,0.293
1.082,-0.661,0.284
1.082,-0.676,0.271
1.08,-0.68,0.256
1.077,-0.689,0.248
1.078,-0.7,0.233
1.078,-0.702,0.224
1.078,-0.702,0.222
1.078,-0.689,0.221
1.074,-0.651,0.224
1.064,-0.629,0.233
1.054,-0.579,0.24
1.042,-0.518,0.261
1.04,-0.479,0.311
1.054,-0.397,0.34
1.081,-0.337,0.403
1.093,-0.294,0.458
1.11,-0.276,0.501
1.109,-0.263,0.515
1.097,-0.25,0.531
1.088,-0.253,0.539
1.075,-0.257,0.541
1.048,-0.261,0.534
1.025,-0.263,0.522
0.982,-0.278,0.517
0.943,-0.298,0.506
0.924,-0.335,0.494
0.885,-0.349,0.471
0.836,-0.377,0.458
0.815,-0.404,0.424
0.773,-0.411,0.383
0.728,-0.427,0.365
0.687,-0.438,0.331
0.671,-0.444,0.305
0.642,-0.449,0.283
0.609,-0.453,0.272
0.565,-0.439,0.267
0.546,-0.436,0.277
0.52,-0.421,0.285
0.494,-0.405,0.311
0.482,-0.361,0.346
0.47,-0.337,0.397
0.481,-0.298,0.423
0.488,-0.246,0.477
0.492,-0.224,0.535
0.48,-0.178,0.56
0.45,-0.139,0.597
0.426,-0.096,0.621
0.364,-0.068,0.637
0.298,-0.011,0.643
0.264,0.014,0.647
0.201,0.068,0.643
0.149,0.117,0.64
0.135,0.142,0.646
0.118,0.193,0.651
0.097,0.251,0.651
0.023,0.283,0.64
-0.057,0.379,0.632
-0.094,0.462,0.619
-0.165,0.518,0.597
-0.23,0.641,0.587
-0.312,0.772,0.579
-0.349,0.974,0.604
-0.408,1.008,0.653
-0.473,1.174,0.693
-0.506,1.322,0.79
-0.572,1.401,0.918
-0.653,1.549,0.996
-0.705,1.692,1.156
-0.757,1.752,1.339
-0.78,1.815,1.426
-0.781,1.809,1.577
-0.771,1.763,1.675
-0.727,1.728,1.683
-0.661,1.622,1.639
-0.611,1.48,1.466
-0.423,1.407,1.272
-0.1,1.271,1.169
0.26,1.161,0.96
0.423,1.114,0.78
0.671,1.031,0.695
0.751,0.965,0.514
0.808,0.936,0.366
0.728,0.91,0.313
0.652,0.908,0.278
0.462,0.906,0.301
0.269,0.9,0.408
0.176,0.878,0.559
0.011,0.864,0.717
-0.109,0.846,0.789
-0.15,0.8,0.894
-0.193,0.77,0.934
-0.191,0.701,0.926
-0.172,0.652,0.869
-0.1,0.63,0.785
-0.025,0.588,0.736
0.041,0.538,0.645
0.069,0.495,0.57
0.118,0.479,0.522
0.163,0.454,0.512
0.179,0.441,0.52
0.179,0.433,0.552
0.14,0.419,0.573
0.112,0.409,0.63
0.039,0.411,0.698
-0.035,0.426,0.731
-0.067,0.444,0.786
-0.128,0.457,0.822
-0.174,0.475,0.837
-0.191,0.482,0.868
-0.192,0.499,0.893
-0.185,0.51,0.899
-0.167,0.525,0.906
-0.153,0.529,0.912
-0.111,0.532,0.919
-0.062,0.541,0.925
-0.041,0.555,0.942
0.376,0.706,0.91
0.371,0.715,0.91
0.364,0.725,0.904
0.37,0.728,0.9
0.38,0.725,0.878
0.382,0.697,0.863
0.396,0.677,0.89
0.396,0.671,0.848
0.403,0.646,0.844
0.401,0.63,0.82
0.403,0.624,0.791
0.406,0.61,0.77
0.402,0.601,0.732
0.395,0.598,0.696
0.403,0.585,0.685
0.41,0.585,0.667
0.43,0.585,0.65
0.442,0.578,0.638
0.446,0.575,0.613
0.453,0.574,0.593
0.477,0.558,0.587
0.495,0.533,0.576
0.544,0.519,0.571
0.602,0.498,0.565
0.629,0.477,0.556
0.665,0.465,0.553
0.697,0.434,0.545
0.706,0.418,0.537
0.717,0.396,0.531
0.72,0.389,0.517
0.722,0.397,0.509
0.721,0.405,0.505
0.698,0.416,0.503
0.684,0.423,0.493
0.654,0.425,0.485
0.625,0.415,0.486
0.615,0.398,0.494
0.606,0.395,0.498
0.607,0.397,0.502
0.618,0.393,0.51
0.643,0.37,0.514
0.652,0.321,0.523
0.659,0.291,0.518
0.667,0.235,0.513
0.672,0.182,0.497
0.699,0.156,0.473
0.736,0.094,0.459
0.754,0.02,0.428
0.781,-0.012,0.396
0.79,-0.073,0.375
0.79,-0.112,0.337
0.778,-0.126,0.301
0.758,-0.128,0.273
0.758,-0.125,0.268
0.76,-0.126,0.263
0.769,-0.124,0.257
0.793,-0.102,0.254
0.832,-0.089,0.259
0.852,-0.081,0.266
0.88,-0.081,0.264
0.892,-0.076,0.265
0.891,-0.069,0.278
0.893,-0.07,0.292
0.904,-0.099,0.298
0.913,-0.152,0.305
0.913,-0.205,0.308
0.894,-0.232,0.294
0.857,-0.287,0.284
0.826,-0.324,0.267
0.827,-0.358,0.266
0.854,-0.372,0.26
0.89,-0.376,0.246
0.901,-0.397,0.237
0.888,-0.405,0.239
0.878,-0.404,0.235
0.857,-0.399,0.233
0.846,-0.38,0.229
0.843,-0.365,0.227
0.834,-0.361,0.222
0.824,-0.347,0.21
0.822,-0.33,0.198
0.826,-0.322,0.191
0.834,-0.323,0.192
0.844,-0.338,0.201
0.85,-0.348,0.221
0.863,-0.369,0.232
0.864,-0.388,0.253
0.859,-0.395,0.265
0.854,-0.396,0.278
0.867,-0.391,0.287
0.873,-0.387,0.298
0.871,-0.387,0.307
0.861,-0.386,0.313
0.861,-0.377,0.322
0.861,-0.37,0.334
0.869,-0.358,0.336
0.881,-0.342,0.334
0.891,-0.33,0.316
0.913,-0.306,0.305
0.934,-0.288,0.281
0.947,-0.275,0.261
0.967,-0.276,0.255
0.974,-0.291,0.244
0.972,-0.304,0.228
0.963,-0.334,0.222
0.949,-0.371,0.206
0.94,-0.414,0.196
0.917,-0.437,0.19
0.894,-0.473,0.19
0.875,-0.493,0.19
0.873,-0.499,0.195
0.871,-0.5,0.206
0.871,-0.49,0.211
0.999,-0.481,0.227
0.893,-0.469,0.244
0.908,-0.446,0.254
0.913,-0.422,0.27
0.928,-0.411,0.3
0.975,-0.359,0.297
-0.495,1.309,0.42
-0.505,1.424,0.526
-0.508,1.487,0.631
-0.477,1.545,0.69
-0.426,1.626,0.823
-0.4,1.656,0.95
-0.381,1.728,1.014
-0.397,1.788,1.136
-0.397,1.81,1.253
-0.36,1.812,1.362
-0.264,1.797,1.413
-0.195,1.714,1.464
-0.051,1.658,1.432
0.066,1.551,1.388
0.155,1.449,1.249
0.195,1.383,1.041
0.296,1.238,0.933
0.36,1.092,0.724
0.497,1.026,0.621
0.586,0.923,0.481
0.594,0.883,0.383
0.554,0.817,0.357
0.508,0.765,0.345
0.381,0.741,0.376
0.214,0.697,0.408
0.001,0.663,0.5
-0.052,0.648,0.634
-0.229,0.616,0.704
-0.308,0.589,0.835
-0.424,0.585,0.941
-0.476,0.587,0.984
-0.485,0.579,1.023
-0.463,0.57,1.001
-0.409,0.553,0.975
-0.335,0.532,0.895
-0.287,0.513,0.804
-0.188,0.508,0.709
-0.091,0.508,0.672
-0.039,0.524,0.625
0.071,0.533,0.608
0.158,0.541,0.609
0.183,0.548,0.629
0.214,0.555,0.668
0.199,0.577,0.694
0.158,0.592,0.751
0.13,0.598,0.804
0.075,0.61,0.83
0.049,0.625,0.864
-0.009,0.632,0.887
-0.064,0.636,0.895
-0.09,0.623,0.899
-0.124,0.612,0.894
-0.13,0.598,0.884
-0.127,0.59,0.878
-0.108,0.571,0.75
-0.084,0.557,0.868
-0.073,0.55,0.861
-0.038,0.539,0.862
-0.021,0.535,0.869
0.005,0.531,0.888
0.023,0.531,0.901
0.032,0.544,0.936
0.045,0.551,0.972
0.048,0.566,0.988
0.046,0.572,1.021
0.041,0.574,1.044
0.041,0.572,1.054
0.041,0.58,1.071
0.043,0.583,1.089
0.041,0.591,1.09
0.037,0.593,1.084
0.034,0.593,1.072
0.032,0.589,1.044
0.033,0.582,1.016
0.04,0.58,0.988
0.047,0.582,0.976
0.055,0.589,0.954
0.07,0.59,0.936
0.085,0.595,0.929
0.093,0.597,0.919
0.109,0.596,0.915
0.122,0.601,0.916
0.122,0.602,0.919
0.125,0.607,0.919
0.128,0.61,0.925
0.129,0.612,0.93
0.13,0.615,0.932
0.122,0.606,0.932
0.12,0.599,0.925
0.112,0.582,0.922
0.109,0.567,0.915
0.105,0.557,0.898
0.099,0.54,0.889
0.095,0.525,0.865
0.085,0.521,0.837
0.07,0.51,0.825
0.06,0.505,0.808
0.046,0.503,0.799
0.038,0.5,0.795
0.036,0.501,0.795
0.034,0.503,0.796
0.033,0.507,0.796
0.043,0.508,0.798
0.051,0.519,0.797
0.056,0.528,0.8
0.067,0.533,0.795
0.081,0.544,0.796
0.092,0.547,0.798
0.108,0.548,0.801
0.12,0.552,0.808
0.124,0.557,0.809
0.131,0.559,0.813
0.138,0.558,0.819
0.14,0.559,0.829
0.137,0.564,0.833
0.139,0.57,0.843
0.137,0.571,0.846
0.131,0.572,0.846
0.124,0.574,0.848
-0.36,1.08,0.617
-0.379,1.1,0.681
-0.407,1.096,0.695
-0.423,1.117,0.746
-0.438,1.131,0.802
-0.405,1.144,0.833
-0.368,1.142,0.897
-0.272,1.136,0.949
-0.171,1.119,0.966
-0.077,1.126,0.994
-0.041,1.133,0.999
0.016,1.128,0.984
0.071,1.102,0.935
0.1,1.061,0.875
0.159,1.04,0.797
0.202,0.996,0.764
0.216,0.933,0.692
0.231,0.897,0.66
0.239,0.829,0.61
0.237,0.77,0.573
0.224,0.744,0.539
0.193,0.706,0.528
0.171,0.671,0.519
0.113,0.658,0.516
0.051,0.645,0.526
0.02,0.649,0.571
-0.045,0.654,0.635
-0.109,0.663,0.667
-0.141,0.669,0.737
-0.184,0.673,0.804
-0.196,0.68,0.834
-0.181,0.69,0.885
-0.166,0.696,0.922
-0.133,0.698,0.928
-0.091,0.694,0.915
-0.069,0.696,0.888
-0.019,0.71,0.875
0.032,0.712,0.834
0.061,0.712,0.791
0.133,0.712,0.775
0.207,0.709,0.752
0.238,0.71,0.74
0.279,0.713,0.74
0.302,0.712,0.752
0.305,0.707,0.766
0.296,0.706,0.776
0.275,0.715,0.797
0.262,0.723,0.823
0.228,0.733,0.836
0.208,0.726,0.847
0.174,0.722,0.854
0.149,0.71,0.855
0.137,0.686,0.856
0.118,0.673,0.86
0.098,0.655,0.863
0.089,0.644,0.867
0.076,0.643,0.869
0.073,0.644,0.866
0.075,0.638,0.866
0.092,0.627,0.863
0.103,0.62,0.853
0.122,0.618,0.841
0.139,0.618,0.838
0.15,0.623,0.831
0.181,0.624,0.833
0.217,0.621,0.837
0.234,0.617,0.847
0.264,0.617,0.855
0.28,0.618,0.86
0.283,0.621,0.868
0.291,0.625,0.875
0.288,0.625,0.881
0.286,0.628,0.881
0.278,0.626,0.879
0.264,0.62,0.871
0.131,0.614,0.853
0.24,0.611,0.837
0.224,0.605,0.83
0.215,0.599,0.813
0.202,0.594,0.799
0.191,0.589,0.792
0.184,0.59,0.78
0.174,0.59,0.77
0.165,0.593,0.764
0.164,0.592,0.757
0.17,0.592,0.757
0.18,0.592,0.756
0.187,0.593,0.754
0.204,0.597,0.758
0.213,0.6,0.769
0.225,0.6,0.776
0.243,0.61,0.78
0.253,0.62,0.79
0.276,0.621,0.794
0.286,0.623,0.805
0.29,0.629,0.814
0.29,0.63,0.82
0.293,0.636,0.82
0.294,0.643,0.824
0.291,0.646,0.822
0.277,0.648,0.821
0.258,0.655,0.819
0.25,0.66,0.814
0.235,0.666,0.811
0.228,0.671,0.807
0.222,0.673,0.813
0.221,0.675,0.812
0.222,0.674,0.809
0.227,0.673,0.807
0.235,0.671,0.806
0.237,0.671,0.801
0.242,0.668,0.794
0.243,0.655,0.792
0.244,0.651,0.788
0.245,0.645,0.786
0.239,0.639,0.787
0.234,0.638,0.784
0.222,0.636,0.786
0.214,0.635,0.791
-0.344,1.307,0.443
-0.322,1.341,0.465
-0.291,1.39,0.499
-0.284,1.433,0.535
-0.254,1.445,0.573
-0.181,1.49,0.602
-0.146,1.515,0.674
-0.102,1.515,0.734
-0.088,1.506,0.76
-0.088,1.486,0.8
-0.076,1.467,0.824
-0.031,1.422,0.832
0.036,1.369,0.837
0.074,1.338,0.83
0.148,1.279,0.824
0.183,1.225,0.803
0.229,1.197,0.77
0.25,1.142,0.735
0.241,1.081,0.683
0.201,1.048,0.611
0.14,0.971,0.577
0.079,0.881,0.519
0.043,0.821,0.445
0.072,0.731,0.48
0.029,0.677,0.435
0.012,0.646,0.449
-0.038,0.578,0.45
-0.056,0.515,0.472
-0.058,0.495,0.517
-0.049,0.462,0.548
-0.049,0.437,0.615
-0.051,0.427,0.686
-0.042,0.425,0.729
-0.038,0.423,0.8
-0.037,0.443,0.868
-0.02,0.46,0.915
0.005,0.502,0.935
0.019,0.549,0.966
0.042,0.574,0.973
0.044,0.631,0.973
0.047,0.688,0.961
0.051,0.71,0.95
0.061,0.748,0.921
0.069,0.769,0.883
0.093,0.777,0.865
0.132,0.792,0.834
0.157,0.8,0.814
0.197,0.808,0.805
0.217,0.811,0.782
0.221,0.814,0.769
0.223,0.827,0.762
0.218,0.837,0.761
0.217,0.842,0.77
0.216,0.849,0.774
0.214,0.856,0.787
0.205,0.857,0.803
0.202,0.859,0.81
0.198,0.863,0.823
0.204,0.862,0.828
0.207,0.858,0.833
0.21,0.854,0.837
0.219,0.836,0.836
0.224,0.812,0.83
0.231,0.803,0.825
0.234,0.783,0.821
0.23,0.764,0.809
0.218,0.752,0.797
0.209,0.721,0.79
0.194,0.682,0.77
0.184,0.664,0.747
0.159,0.642,0.739
0.144,0.623,0.726
0.122,0.614,0.712
0.111,0.591,0.704
0.109,0.582,0.691
0.106,0.566,0.682
0.108,0.555,0.68
0.109,0.553,0.68
0.112,0.561,0.68
0.119,0.57,0.686
0.122,0.575,0.693
0.135,0.587,0.695
0.154,0.597,0.699
0.163,0.604,0.705
0.178,0.624,0.706
0.193,0.64,0.719
0.204,0.646,0.733
0.216,0.661,0.739
0.223,0.666,0.757
0.224,0.669,0.773
0.225,0.67,0.781
0.226,0.675,0.794
0.232,0.678,0.806
0.24,0.68,0.811
0.244,0.684,0.818
0.248,0.691,0.823
0.242,0.695,0.832
0.239,0.699,0.834
0.233,0.712,0.834
0.224,0.73,0.831
0.218,0.747,0.826
0.207,0.752,0.822
0.209,0.759,0.816
0.211,0.763,0.808
0.225,0.763,0.799
0.24,0.772,0.785
0.247,0.775,0.775
0.258,0.775,0.764
0.265,0.768,0.76
0.266,0.756,0.749
0.273,0.751,0.744
0.278,0.736,0.745
0.274,0.731,0.744
0.263,0.719,0.742
0.257,0.714,0.743
0.248,0.715,0.749
0.239,0.717,0.752
0.233,0.716,0.759
0.215,0.717,0.764
-0.143,1.121,0.813
-0.225,1.149,0.87
-0.263,1.159,0.929
-0.314,1.162,0.983
-0.34,1.153,1.008
-0.336,1.127,1.056
-0.32,1.109,1.082
-0.264,1.056,1.082
-0.226,0.994,1.059
-0.144,0.957,1.006
-0.058,0.879,0.973
0.021,0.799,0.895
0.058,0.758,0.819
0.1,0.692,0.781
0.107,0.652,0.701
0.099,0.631,0.64
0.07,0.599,0.621
0.053,0.571,0.59
0.006,0.569,0.587
-0.044,0.55,0.588
-0.067,0.507,0.597
-0.1,0.496,0.631
-0.118,0.474,0.655
-0.116,0.452,0.707
-0.11,0.442,0.751
-0.095,0.428,0.771
-0.08,0.418,0.802
-0.071,0.42,0.819
-0.048,0.427,0.825
-0.015,0.446,0.838
0.002,0.458,0.845
0.037,0.465,0.846
0.061,0.484,0.851
0.072,0.499,0.851
0.092,0.506,0.847
0.097,0.524,0.839
0.098,0.535,0.835
0.107,0.564,0.836
0.118,0.582,0.845
0.136,0.588,0.859
0.142,0.599,0.869
0.144,0.626,0.887
0.151,0.64,0.909
0.163,0.663,0.918
0.168,0.68,0.939
0.171,0.689,0.948
0.176,0.706,0.952
0.177,0.716,0.959
0.194,0.716,0.958
0.215,0.707,0.955
0.226,0.691,0.956
0.252,0.681,0.951
0.267,0.658,0.947
0.271,0.642,0.938
0.265,0.508,0.93
0.244,0.614,0.922
0.223,0.604,0.909
0.216,0.602,0.902
0.208,0.593,0.901
0.204,0.59,0.903
0.194,0.587,0.905
0.191,0.576,0.904
0.188,0.566,0.896
0.189,0.56,0.887
0.189,0.551,0.884
0.191,0.539,0.875
0.203,0.529,0.872
0.22,0.511,0.869
0.228,0.495,0.855
0.247,0.49,0.851
0.257,0.491,0.851
0.259,0.5,0.849
0.257,0.506,0.849
0.258,0.52,0.855
0.258,0.537,0.867
0.265,0.546,0.873
0.264,0.56,0.881
0.267,0.578,0.891
0.274,0.589,0.895
0.286,0.601,0.901
0.293,0.604,0.903
0.302,0.608,0.903
0.308,0.601,0.892
0.316,0.596,0.882
0.328,0.578,0.871
0.33,0.562,0.852
0.327,0.558,0.834
0.32,0.546,0.824
0.316,0.526,0.802
0.315,0.517,0.783
0.31,0.5,0.777
0.3,0.501,0.766
0.296,0.496,0.765
0.285,0.496,0.766
0.282,0.503,0.771
0.281,0.506,0.781
0.275,0.515,0.784
0.268,0.523,0.795
0.264,0.527,0.809
0.264,0.527,0.817
0.272,0.538,0.83
0.28,0.55,0.84
0.294,0.557,0.85
0.299,0.544,0.857
0.3,0.531,0.866
0.306,0.529,0.871
0.31,0.521,0.858
0.318,0.509,0.882
0.312,0.53,0.877
0.306,0.525,0.861
0.279,0.519,0.859
0.276,0.522,0.859
0.278,0.528,0.855
0.273,0.532,0.853
0.26,0.535,0.852
0.253,0.544,0.85
0.251,0.54,0.862
0.25,0.545,0.863
0.25,0.554,0.85
-0.369,0.907,0.88
-0.387,0.956,0.916
-0.402,1.044,0.931
-0.404,1.119,0.96
-0.406,1.154,0.993
-0.422,1.213,1.003
-0.427,1.251,1.013
-0.422,1.261,1.015
-0.404,1.277,1.014
-0.375,1.282,1.013
-0.353,1.289,1.013
-0.307,1.285,1.014
-0.257,1.264,1.012
-0.231,1.237,1.003
-0.182,1.218,0.99
-0.134,1.164,0.979
-0.085,1.1,0.953
-0.06,1.041,0.915
-0.007,1.013,0.873
0.049,0.949,0.848
0.078,0.878,0.793
0.142,0.841,0.741
0.208,0.772,0.718
0.223,0.736,0.668
0.22,0.672,0.647
0.193,0.622,0.609
0.17,0.576,0.583
0.114,0.561,0.569
0.042,0.539,0.575
0.005,0.517,0.582
-0.072,0.509,0.606
-0.137,0.488,0.626
-0.155,0.47,0.668
-0.187,0.46,0.708
-0.207,0.436,0.725
-0.211,0.406,0.769
-0.197,0.385,0.795
-0.168,0.352,0.801
-0.132,0.329,0.812
-0.111,0.318,0.816
-0.074,0.311,0.816
-0.043,0.325,0.82
-0.031,0.346,0.834
-0.013,0.361,0.84
-0.009,0.391,0.854
-0.006,0.405,0.871
-0.001,0.432,0.883
0.001,0.47,0.906
0.003,0.49,0.935
0.012,0.521,0.949
0.029,0.553,0.977
0.042,0.562,0.999
0.075,0.58,1.008
0.103,0.595,1.021
0.116,0.61,1.031
0.145,0.615,1.035
0.173,0.625,1.037
0.181,0.63,1.041
0.195,0.629,1.037
0.203,0.625,1.032
0.207,0.618,1.022
0.221,0.612,1.016
0.221,0.603,1.002
0.217,0.598,0.985
0.2,0.588,0.976
0.183,0.579,0.962
0.174,0.573,0.949
0.166,0.569,0.943
0.163,0.562,0.935
0.162,0.561,0.93
0.161,0.556,0.927
0.165,0.549,0.916
0.175,0.548,0.91
0.181,0.543,0.904
0.191,0.538,0.892
0.208,0.527,0.889
0.218,0.515,0.883
0.222,0.513,0.883
0.214,0.517,0.887
0.212,0.523,0.904
0.211,0.527,0.919
0.205,0.548,0.925
0.201,0.566,0.938
0.198,0.568,0.947
0.197,0.566,0.952
0.194,0.575,0.959
0.192,0.581,0.959
0.203,0.583,0.956
0.208,0.576,0.948
0.211,0.57,0.933
0.222,0.555,0.923
0.224,0.544,0.899
0.23,0.539,0.889
0.231,0.527,0.867
0.233,0.514,0.847
0.232,0.511,0.829
0.228,0.508,0.823
0.224,0.509,0.81
0.214,0.513,0.805
0.212,0.517,0.802
0.21,0.523,0.804
0.206,0.526,0.806
0.203,0.532,0.813
0.2,0.534,0.82
0.199,0.538,0.828
0.2,0.536,0.844
0.208,0.536,0.86
0.215,0.522,0.866
0.222,0.526,0.884
0.228,0.537,0.895
0.24,0.538,0.897
0.238,0.532,0.915
0.237,0.526,0.923
0.232,0.516,0.924
0.223,0.515,0.931
0.219,0.513,0.93
0.207,0.523,0.928
0.197,0.522,0.92
0.184,0.524,0.923
-0.142,1.18,0.714
-0.11,1.189,0.749
-0.105,1.205,0.758
-0.102,1.226,0.773
-0.108,1.237,0.787
-0.137,1.258,0.792
-0.154,1.265,0.802
-0.176,1.261,0.814
-0.159,1.244,0.827
-0.138,1.212,0.852
-0.091,1.187,0.863
-0.054,1.132,0.864
-0.029,1.076,0.84
-0.013,0.992,0.798
0.021,0.947,0.752
0.064,0.858,0.728
0.087,0.786,0.687
0.126,0.758,0.674
0.149,0.715,0.674
0.158,0.681,0.68
0.147,0.667,0.683
0.105,0.659,0.702
0.079,0.657,0.729
0.026,0.665,0.748
-0.023,0.66,0.799
-0.044,0.647,0.858
-0.081,0.628,0.887
-0.121,0.604,0.931
-0.132,0.586,0.958
-0.146,0.572,0.959
-0.16,0.559,0.953
-0.161,0.549,0.916
-0.146,0.546,0.871
-0.122,0.533,0.842
-0.111,0.523,0.789
-0.075,0.522,0.745
-0.03,0.527,0.732
0.008,0.536,0.712
0.024,0.556,0.714
0.049,0.565,0.72
0.088,0.584,0.744
0.107,0.597,0.783
0.15,0.619,0.807
0.184,0.64,0.859
0.198,0.656,0.908
0.208,0.665,0.93
0.203,0.682,0.965
0.197,0.689,0.992
0.189,0.688,0.996
0.187,0.683,0.993
0.187,0.662,0.975
0.191,0.645,0.965
0.185,0.614,0.941
0.182,0.594,0.92
0.169,0.59,0.911
0.154,0.577,0.891
0.148,0.567,0.869
0.148,0.548,0.86
0.15,0.538,0.853
0.154,0.537,0.851
0.147,0.538,0.85
0.147,0.534,0.857
0.153,0.532,0.865
0.159,0.53,0.87
0.162,0.539,0.887
0.165,0.543,0.903
0.177,0.548,0.913
0.19,0.541,0.928
0.221,0.534,0.937
0.249,0.523,0.952
0.257,0.515,0.961
0.266,0.502,0.963
0.263,0.504,0.961
0.244,0.507,0.958
0.221,0.519,0.958
0.207,0.529,0.954
0.186,0.534,0.951
0.175,0.545,0.95
0.17,0.548,0.942
0.165,0.551,0.935
0.167,0.553,0.92
0.173,0.552,0.901
0.184,0.547,0.887
0.196,0.547,0.858
0.203,0.547,0.83
0.216,0.539,0.818
0.229,0.528,0.796
0.232,0.522,0.779
0.234,0.516,0.771
0.237,0.512,0.764
0.239,0.512,0.76
0.237,0.511,0.763
0.24,0.512,0.77
0.25,0.514,0.779
0.256,0.513,0.786
0.255,0.515,0.798
0.247,0.519,0.812
0.233,0.521,0.817
0.231,0.525,0.825
0.228,0.524,0.829
0.223,0.523,0.83
0.218,0.524,0.834
0.212,0.523,0.837
0.209,0.512,0.838
0.207,0.502,0.833
0.198,0.496,0.83
0.198,0.487,0.827
0.2,0.486,0.821
0.202,0.488,0.822
0.204,0.493,0.823
0.204,0.503,0.821
0.204,0.507,0.825
0.209,0.505,0.831
0.213,0.512,0.836
0.225,0.521,0.838
0.229,0.527,0.851
0.228,0.529,0.862
0.232,0.531,0.881
0.242,0.541,0.888
-0.317,1.331,0.559
-0.347,1.277,0.597
-0.312,1.351,0.611
-0.231,1.381,0.639
-0.178,1.403,0.672
-0.081,1.415,0.698
-0.003,1.412,0.703
0.03,1.425,0.721
0.102,1.435,0.748
0.203,1.447,0.768
0.252,1.452,0.822
0.325,1.454,0.876
0.349,1.451,0.9
0.357,1.446,0.935
0.374,1.436,0.943
0.378,1.404,0.951
0.38,1.259,0.933
0.389,1.332,0.926
0.415,1.249,0.892
0.439,1.209,0.854
0.478,1.136,0.831
0.483,1.06,0.78
0.475,0.98,0.736
0.436,0.939,0.708
0.397,0.854,0.708
0.373,0.813,0.716
0.309,0.748,0.723
0.226,0.697,0.753
0.184,0.673,0.79
0.112,0.631,0.807
0.053,0.586,0.826
0.031,0.557,0.834
0.004,0.505,0.832
-0.003,0.461,0.819
-0.008,0.443,0.791
-0.005,0.406,0.771
0.002,0.366,0.738
0.022,0.354,0.711
0.04,0.347,0.703
0.053,0.352,0.695
0.09,0.352,0.709
0.134,0.354,0.719
0.155,0.375,0.747
0.188,0.388,0.788
0.203,0.418,0.809
0.208,0.448,0.851
0.215,0.466,0.895
0.221,0.497,0.916
0.221,0.536,0.953
0.217,0.551,0.979
0.219,0.57,0.988
0.22,0.585,0.996
0.222,0.59,0.992
0.225,0.595,0.983
0.244,0.593,0.962
0.256,0.59,0.927
0.272,0.585,0.909
0.283,0.581,0.875
0.299,0.575,0.843
0.316,0.552,0.828
0.327,0.521,0.812
0.349,0.515,0.812
0.353,0.516,0.825
0.343,0.515,0.847
0.327,0.508,0.858
0.318,0.499,0.878
0.313,0.493,0.893
0.3,0.482,0.897
0.287,0.472,0.907
0.274,0.473,0.922
0.269,0.467,0.926
0.268,0.459,0.928
0.273,0.454,0.921
0.272,0.448,0.913
0.268,0.447,0.897
0.259,0.448,0.884
0.249,0.455,0.877
0.25,0.459,0.868
0.253,0.459,0.866
0.266,0.456,0.858
0.282,0.444,0.853
0.289,0.436,0.846
0.301,0.429,0.841
0.297,0.432,0.834
0.287,0.44,0.829
0.277,0.441,0.831
0.278,0.44,0.831
0.279,0.436,0.835
0.29,0.429,0.837
0.292,0.433,0.84
0.279,0.439,0.844
0.27,0.446,0.845
0.269,0.45,0.848
0.273,0.459,0.852
0.277,0.467,0.853
0.278,0.48,0.86
0.275,0.49,0.866
0.277,0.486,0.868
0.279,0.485,0.873
0.285,0.47,0.873
0.289,0.468,0.861
0.291,0.464,0.857
0.29,0.461,0.849
0.281,0.453,0.844
0.28,0.441,0.835
0.279,0.437,0.827
0.274,0.431,0.823
0.271,0.433,0.828
0.262,0.434,0.84
0.263,0.432,0.84
0.26,0.467,0.846
0.243,0.481,0.853
0.24,0.479,0.861
0.244,0.483,0.871
0.262,0.486,0.875
0.27,0.503,0.887
0.274,0.508,0.891
0.288,0.5,0.891
0.31,0.5,0.892
-0.024,1.117,1.35
0.084,1.266,1.668
0.403,1.608,1.839
0.281,1.144,1.742
0.199,0.852,1.408
-0.017,0.38,1.206
-0.151,0.355,0.924
-0.191,0.546,0.894
-0.812,1.424,1.275
0.512,0.067,1.345
0.028,0.807,1.098
0.086,0.449,0.96
0.036,0.416,0.934
0.096,0.4,1.04
0.029,0.446,1.023
0.008,0.405,0.994
-0.049,0.41,1.029
-0.073,0.436,1.059
-0.041,0.378,1.047
-0.047,0.355,1.011
0.01,0.345,0.995
0.077,0.333,0.996
0.082,0.333,0.976
0.084,0.345,0.977
0.047,0.34,0.968
0.036,0.339,0.976
0.034,0.328,0.991
0.025,0.357,0.996
0.022,0.355,0.996
0.068,0.336,0.995
0.089,0.349,1.037
0.118,0.633,1.455
0.194,0.516,0.897
0.05,0.305,0.99
0.065,0.337,1.011
0.021,0.339,1.026
0.073,0.292,0.995
0.07,0.234,0.981
0.029,0.279,0.995
-0.02,0.29,0.989
-0.02,0.302,1.008
-0.026,0.273,1.007
-0.028,0.288,1.015
0,0.273,0.998
0.008,0.304,1.004
-0.015,0.303,0.99
0.023,0.28,0.987
0.02,0.276,0.996
0.005,0.274,0.973
0.022,0.225,0.982
0.003,0.216,0.98
-0.036,0.179,0.976
-0.049,0.169,1.017
-0.034,0.213,1.016
-0.118,0.207,0.961
-0.052,0.345,0.907
-0.024,0.35,0.789
-0.006,0.323,0.775
-0.02,0.249,0.764
0.053,0.838,0.702
0.132,0.767,0.586
0.07,0.637,0.53
-0.349,-0.523,2.484
0.135,0.008,0.041
0.418,-0.729,1.042
0.51,-0.157,0.194
0.237,-0.054,2.039
0.193,-0.194,1.097
0.213,-0.246,1.156
0.183,-0.192,1.075
-0.008,0.072,1.02
-0.059,0.153,0.596
-0.04,0.258,1.26
-0.012,0.014,1.081
-0.037,0.196,0.993
-0.006,0.044,1.058
-0.01,0.143,1.009
0.012,0.158,1.009
0.037,0.095,1.037
0.031,0.119,1.025
0.032,0.112,1.04
0.042,0.09,1.041
0.03,0.232,1.018
0.018,0.134,1.017
0.032,0.116,1.038
0.015,0.178,1.018
-0.007,0.178,1.017
0.017,0.141,1.029
0.023,0.123,1.031
0.035,0.099,1.034
0.044,0.078,1.033
0.044,0.076,1.033
0.046,0.086,1.031
0.041,0.081,1.033
0.047,0.082,1.035
0.037,0.096,1.036
0.029,0.119,1.029
0.027,0.116,1.032
0.03,0.11,1.031
0.028,0.112,1.027
0.03,0.108,1.028
0.031,0.11,1.029
0.029,0.112,1.026
0.03,0.114,1.031
0.032,0.109,1.032
0.031,0.112,1.027
0.03,0.11,1.026
0.03,0.112,1.028
0.026,0.112,1.027
0.028,0.112,1.03
0.028,0.112,1.032
0.031,0.113,1.03
0.031,0.111,1.029
0.029,0.111,1.029
0.029,0.113,1.03
0,0.17,1.026
-0.02,0.191,1.016
0.002,0.171,1.032
0.021,0.133,1.026
