Accel_x,Accel_y,Accel_z,Gyr_x,Gyr_y,Gyr_z
-0.16,0.99,-0.05,0.07,-2.45,-0.77
-0.15,0.99,-0.05,0.28,-2.45,-0.77
-0.15,0.99,-0.05,0.35,-2.52,-0.84
-0.15,0.99,-0.05,0.14,-2.31,-0.63
-0.15,0.99,-0.05,0.21,-2.24,-0.98
-0.15,0.99,-0.05,0.14,-2.52,-0.63
-0.15,0.99,-0.05,0.42,-2.59,-0.7
-0.15,0.99,-0.05,0.07,-2.31,-0.84
-0.16,0.99,-0.05,0.07,-2.31,-0.91
-0.15,0.99,-0.05,0.07,-2.31,-0.84
-0.15,0.99,-0.05,0.07,-2.38,-0.91
-0.15,0.99,-0.05,0.21,-2.17,-0.84
-0.16,0.99,-0.05,0,-2.1,-0.98
-0.16,0.99,-0.05,0,-2.38,-0.84
-0.15,0.99,-0.05,-0.14,-2.31,-0.91
-0.16,0.99,-0.05,0,-2.38,-0.84
-0.16,0.99,-0.05,0.28,-2.52,-0.7
-0.16,0.99,-0.05,0,-2.24,-0.77
-0.16,0.99,-0.05,0.21,-2.31,-0.84
-0.15,0.99,-0.05,-17.85,-2.24,-0.98
-0.15,0.99,-0.05,0.42,-2.45,-0.63
-0.16,0.99,-0.05,0.35,-2.52,-0.63
-0.16,0.99,-0.05,0.21,-2.38,-0.84
-0.16,0.99,-0.05,0.49,-2.45,-0.77
-0.15,0.99,-0.05,0,-2.24,-0.7
-0.15,0.99,-0.05,0.35,-2.38,-0.84
-0.15,0.99,-0.05,0.35,-2.45,-0.7
-0.15,0.99,-0.05,0.14,-2.38,-0.84
-0.16,0.99,-0.05,0.28,-2.38,-0.77
-0.15,0.99,-0.05,0,-2.31,-0.98
-0.15,0.99,-0.05,0.21,-2.38,-0.63
-0.15,0.99,-0.05,0.35,-2.38,-0.84
-0.15,0.99,-0.05,0.14,-2.52,-0.77
-0.16,0.99,-0.05,0.07,-2.45,-0.84
-0.16,0.99,-0.05,0.07,-2.31,-0.77
-0.16,0.99,-0.05,0.28,-2.52,-0.77
-0.15,0.99,-0.05,0.28,-2.31,-0.7
-0.15,0.99,-0.05,0.07,-2.24,-0.98
-0.16,0.99,-0.05,0.35,-2.38,-0.91
-0.15,0.99,-0.05,0.14,-2.38,-0.84
-0.15,0.99,-0.05,-0.07,-2.24,-0.84
-0.16,0.99,-0.05,0,-2.17,-0.84
-0.15,0.99,-0.05,0.21,-2.52,-0.84
-0.15,0.99,-0.05,-0.14,-2.24,-0.98
-0.15,0.99,-0.05,0,-2.31,-0.84
-0.16,0.99,-0.05,0.07,-2.38,-0.7
-0.16,0.99,-0.05,0.21,-2.38,-0.7
-0.15,0.99,-0.05,0.14,-2.31,-0.77
-0.15,0.99,-0.05,0.21,-2.38,-0.91
-0.15,0.99,-0.05,-0.14,-2.1,-0.98
-0.15,0.99,-0.05,0.14,-2.38,-0.77
-0.15,0.99,-0.05,0,-2.38,-0.84
-0.16,0.99,-0.05,0.21,-2.45,-0.7
-0.16,0.99,-0.05,0.49,-2.59,-0.7
-0.16,0.99,-0.05,0.14,-2.38,-0.77
-0.15,0.99,-0.05,0.28,-2.38,-0.7
-0.15,0.99,-0.05,0.21,-2.45,-0.77
-0.15,0.99,-0.05,-0.07,-2.24,-1.05
-0.15,0.99,-0.05,0.21,-2.38,-0.91
-0.16,0.99,-0.05,0.21,-2.31,-0.7
-0.16,0.99,-0.05,0.14,-2.38,-0.91
-0.15,0.99,-0.05,0.49,-2.52,-0.7
-0.15,0.99,-0.05,0,-2.31,-0.91
-0.15,0.99,-0.05,0.14,-2.38,-0.77
-0.15,0.99,-0.05,0.07,-2.38,-0.77
-0.16,0.99,-0.05,0.14,-2.38,-0.7
-0.15,0.99,-0.05,0.07,-2.24,-0.84
-0.16,0.99,-0.05,0.07,-2.31,-0.77
-0.16,0.99,-0.05,0.14,-2.24,-0.84
-0.16,0.99,-0.05,0.14,-2.31,-0.84
-0.15,0.99,-0.05,0.14,-2.31,-0.98
-0.15,0.99,-0.05,0.28,-2.45,-0.7
-0.15,0.99,-0.05,0.14,-2.38,-0.77
-0.16,0.99,-0.05,0,-2.17,-0.84
-0.16,0.99,-0.05,0.21,-2.45,-0.77
-0.16,0.99,-0.05,0.14,-2.24,-0.84
-0.16,0.99,-0.05,0.35,-2.52,-0.91
-0.16,0.99,-0.05,0.28,-2.59,-0.98
-0.15,0.99,-0.05,-0.07,-2.45,-0.91
-0.16,0.99,-0.05,0.07,-2.59,-0.7
-0.15,0.99,-0.05,0.14,-2.24,-0.77
-0.15,0.99,-0.05,0.14,-2.52,-0.84
-0.15,0.99,-0.05,0.14,-2.31,-0.84
-0.15,0.99,-0.05,0.21,-2.38,-0.77
-0.15,0.99,-0.05,-0.07,-2.24,-0.7
-0.16,0.99,-0.05,0.14,-2.52,-0.7
-0.15,0.99,-0.05,0.21,-2.45,-0.77
-0.15,0.99,-0.05,0.63,-2.52,-0.63
-0.16,0.99,-0.05,0.28,-2.38,-0.84
-0.16,0.99,-0.05,0.28,-2.31,-0.77
-0.15,0.99,-0.05,0.28,-2.45,-0.77
-0.15,0.99,-0.05,0.28,-2.52,-0.77
-0.15,0.99,-0.05,0.28,-2.45,-0.84
-0.15,0.99,-0.05,0.35,-2.52,-0.77
-0.15,0.99,-0.05,0.28,-2.45,-0.7
-0.15,0.99,-0.05,0.21,-2.45,-0.77
-0.16,0.99,-0.05,0.21,-2.31,-0.84
-0.16,0.99,-0.05,0,-2.24,-0.98
-0.16,0.99,-0.05,0.21,-2.24,-0.77
-0.15,0.99,-0.05,0.14,-2.45,-0.7
-0.16,0.99,-0.05,0.28,-2.38,-0.7
-0.15,0.99,-0.05,-0.14,-2.24,-0.98
-0.16,0.99,-0.05,-0.07,-2.24,-0.98
-0.15,0.99,-0.05,0.28,-2.38,-1.05
-0.16,0.99,-0.05,0.28,-2.31,-0.91
-0.15,0.99,-0.05,0.21,-2.31,-0.84
-0.16,0.99,-0.05,0.35,-2.24,-0.84
-0.15,0.99,-0.05,0,-2.31,-0.84
-0.16,0.99,-0.05,0.28,-2.38,-0.7
-0.16,0.99,-0.05,0.07,-2.38,-0.91
-0.15,0.99,-0.05,0.14,-2.38,-0.91
-0.16,0.99,-0.05,0,-2.31,-0.84
-0.15,0.99,-0.05,0.14,-2.31,-0.91
-0.15,0.99,-0.05,0.21,-2.45,-0.84
-0.15,0.99,-0.05,0.35,-2.45,-0.7
-0.15,0.99,-0.05,0.28,-2.45,-0.77
-0.15,0.99,-0.05,0.21,-2.31,-0.84
-0.15,0.99,-0.05,0.21,-2.31,-0.91
-0.16,0.99,-0.05,0,-2.31,-0.7
-0.15,0.99,-0.05,0.14,-2.45,-0.7
-0.16,0.99,-0.05,0.14,-2.31,-0.84
-0.16,0.99,-0.05,0.28,-2.52,-0.77
-0.16,0.99,-0.05,0.28,-2.52,-0.77
-0.15,0.99,-0.05,0.07,-2.45,-0.91
-0.16,0.99,-0.05,0.28,-2.52,-0.49
-0.15,0.99,-0.05,0.07,-2.17,-0.98
-0.15,0.99,-0.05,0.21,-2.17,-0.91
-0.15,0.99,-0.05,-0.14,-2.1,-0.98
-0.15,0.99,-0.05,0.42,-2.52,-0.63
-0.15,0.99,-0.05,0.07,-2.31,-0.84
-0.15,0.99,-0.05,0.14,-2.38,-0.84
-0.16,0.99,-0.05,0,-2.24,-0.84
-0.16,0.99,-0.05,0.14,-2.24,-0.91
-0.15,0.99,-0.05,0.28,-2.38,-0.7
-0.16,0.99,-0.05,0.14,-2.38,-0.77
-0.15,0.99,-0.05,0,-2.31,-0.91
-0.15,0.99,-0.05,0.07,-2.31,-0.84
-0.16,0.99,-0.05,-0.07,-2.31,-0.84
-0.15,0.99,-0.05,0.21,-2.1,-0.91
-0.16,0.99,-0.05,0.14,-2.38,-0.77
-0.15,0.99,-0.05,0.28,-2.59,-0.77
-0.15,0.99,-0.05,0.07,-2.38,-0.84
-0.15,0.99,-0.05,0,-2.31,-0.77
-0.15,0.99,-0.05,0.28,-2.45,-0.7
-0.16,0.99,-0.05,0.21,-2.38,-0.63
-0.15,0.99,-0.05,0.21,-2.31,-0.84
-0.15,0.99,-0.05,0.14,-2.31,-0.84
-0.15,0.99,-0.05,0.28,-2.38,-0.77
-0.16,0.99,-0.05,0,-2.24,-0.91
-0.15,0.99,-0.05,0.21,-2.38,-0.84
-0.15,0.99,-0.05,0.07,-2.24,-0.91
-0.15,0.99,-0.05,0.21,-2.31,-0.84
-0.15,0.99,-0.05,0.35,-2.66,-0.56
-0.15,0.99,-0.05,0.21,-2.24,-0.77
-0.15,0.99,-0.05,0.07,-2.31,-0.91
-0.15,0.99,-0.05,0,-2.31,-0.98
-0.15,0.99,-0.05,0,-2.24,-0.77
-0.16,0.99,-0.05,0.28,-2.38,-0.7
-0.15,0.99,-0.05,0.21,-2.31,-1.05
-0.16,0.99,-0.05,0.28,-2.17,-0.84
-0.16,0.99,-0.05,-0.07,-2.24,-0.98
-0.16,0.99,-0.05,0.14,-2.38,-0.84
-0.15,0.99,-0.05,0.07,-2.38,-0.84
-0.15,0.99,-0.05,0.28,-2.59,-0.77
-0.15,0.99,-0.05,0.21,-2.52,-0.77
-0.15,0.99,-0.05,-0.07,-2.31,-0.84
-0.15,0.99,-0.05,0.14,-2.24,-0.91
-0.15,0.99,-0.05,0.28,-2.45,-0.7
-0.16,0.99,-0.05,0.42,-2.45,-0.77
-0.16,0.99,-0.05,0.21,-2.45,-0.77
-0.15,0.99,-0.05,0.21,-2.45,-0.63
-0.15,0.99,-0.05,0.35,-2.66,-0.84
-0.15,0.99,-0.05,0.21,-2.73,-0.56
-0.16,0.99,-0.05,0.28,-2.59,-0.63
-0.16,0.99,-0.05,0.07,-2.45,-0.84
-0.15,0.99,-0.05,0.07,-2.38,-0.77
-0.16,0.99,-0.05,0.14,-2.38,-0.77
-0.15,0.99,-0.05,0.21,-2.38,-0.77
-0.15,0.99,-0.05,0.35,-2.52,-0.7
-0.15,0.99,-0.05,0.07,-2.38,-0.77
-0.15,0.99,-0.05,-17.85,-2.31,-0.91
-0.16,0.99,-0.05,-0.07,-2.24,-0.91
-0.15,0.99,-0.05,0.21,-2.31,-0.77
-0.15,0.99,-0.05,0.21,-2.38,-0.84
-0.15,0.99,-0.05,0.28,-2.31,-0.84
-0.15,0.99,-0.05,0.21,-2.31,-0.77
-0.16,0.99,-0.05,0.42,-2.38,-0.77
-0.16,0.99,-0.05,0.49,-2.66,-0.63
-0.15,0.99,-0.05,0.14,-2.38,-0.84
-0.16,0.99,-0.05,-0.07,-2.24,-0.98
-0.15,0.99,-0.05,0,-2.38,-0.77
-0.15,0.99,-0.05,0.07,-2.31,-0.7
-0.15,0.99,-0.05,0.21,-2.45,-0.63
-0.15,0.99,-0.05,0,-2.45,-0.84
-0.16,0.99,-0.05,-0.07,-2.24,-0.84
-0.15,0.99,-0.05,0.07,-2.31,-0.84
-0.15,0.99,-0.05,0.28,-2.24,-0.77
-0.15,0.99,-0.05,0.14,-2.31,-0.7
-0.16,0.99,-0.05,-0.07,-2.24,-0.91
-0.16,0.99,-0.05,-0.07,-2.1,-1.05
-0.16,0.99,-0.05,-17.85,-2.24,-0.91
-0.16,0.99,-0.05,0,-2.52,-0.77
-0.16,0.99,-0.05,0.21,-2.52,-0.77
-0.16,0.99,-0.05,0.07,-2.38,-0.91
-0.15,0.99,-0.05,0.07,-2.45,-0.77
-0.15,0.99,-0.05,0.07,-2.38,-0.91
-0.15,0.99,-0.05,0.28,-2.38,-0.77
-0.15,0.99,-0.05,0,-2.24,-0.84
-0.15,0.99,-0.05,0,-2.24,-0.84
-0.15,0.99,-0.05,0.28,-2.38,-0.77
-0.15,0.99,-0.05,0.28,-2.52,-0.84
-0.16,0.99,-0.05,0.28,-2.31,-0.77
-0.16,0.99,-0.05,0.35,-2.31,-0.84
-0.16,0.99,-0.05,-0.07,-2.31,-0.91
-0.15,0.99,-0.05,-0.21,-2.24,-0.98
-0.15,0.99,-0.05,0.07,-2.45,-0.91
-0.16,0.99,-0.05,0.07,-2.45,-0.77
-0.15,0.99,-0.05,0.14,-2.45,-0.7
-0.15,0.99,-0.05,0.14,-2.45,-1.05
-0.16,0.99,-0.05,0.07,-2.52,-0.7
-0.15,0.99,-0.05,0.21,-2.31,-0.84
-0.16,0.99,-0.05,0.28,-2.45,-0.7
-0.15,0.99,-0.05,0.07,-2.45,-0.84
-0.15,0.99,-0.05,0.07,-2.45,-0.84
-0.15,0.99,-0.05,0.07,-2.45,-1.05
-0.16,0.99,-0.05,0,-2.31,-0.84
-0.15,0.99,-0.05,-0.07,-2.31,-0.84
-0.16,0.99,-0.05,0.21,-2.45,-0.7
-0.16,0.99,-0.05,0.35,-2.45,-0.77
-0.15,0.99,-0.05,0.42,-2.59,-0.7
-0.16,0.99,-0.05,0.28,-2.52,-0.77
-0.16,0.99,-0.05,0.14,-2.38,-0.49
-0.16,0.99,-0.05,0.28,-2.45,-0.77
-0.15,0.99,-0.05,0,-2.52,-0.77
-0.15,0.99,-0.05,0.14,-2.38,-0.77
-0.16,0.99,-0.05,-0.21,-2.17,-0.91
-0.15,0.99,-0.05,0.21,-2.38,-0.77
-0.15,0.99,-0.05,0.07,-2.45,-0.91
-0.15,0.99,-0.05,-0.07,-2.24,-1.12
-0.16,0.99,-0.05,0.07,-2.17,-0.91
-0.16,0.99,-0.05,0.14,-2.1,-0.91
-0.15,0.99,-0.05,-0.07,-2.38,-0.91
-0.16,0.99,-0.05,-0.21,-2.24,-0.91
-0.15,0.99,-0.05,0.07,-2.52,-0.91
-0.15,0.99,-0.05,0.14,-2.45,-0.91
-0.16,0.99,-0.05,0.14,-2.45,-0.7
-0.15,0.99,-0.05,0,-2.38,-0.77
-0.15,0.99,-0.05,-0.14,-2.24,-0.91
-0.15,0.99,-0.05,0.21,-2.38,-0.77
-0.15,0.99,-0.05,0.28,-2.45,-0.84
-0.15,0.99,-0.05,0.28,-2.45,-0.77
-0.16,0.99,-0.05,0.14,-2.31,-0.91
-0.15,0.99,-0.05,0.14,-2.31,-0.91
-0.15,0.99,-0.05,0.14,-2.24,-0.84
-0.15,0.99,-0.05,0,-2.24,-0.84
-0.15,0.99,-0.05,0,-2.24,-0.91
-0.15,0.99,-0.05,0.14,-2.38,-0.91
-0.16,0.99,-0.05,0.07,-2.38,-0.98
-0.15,0.99,-0.05,-0.07,-2.31,-0.77
-0.15,0.99,-0.05,0.28,-2.52,-0.91
-0.15,0.99,-0.05,0,-2.52,-0.63
-0.15,0.99,-0.05,0.07,-2.38,-0.77
-0.15,0.99,-0.05,0,-2.31,-0.91
-0.15,0.99,-0.05,0.07,-2.31,-0.84
-0.15,0.99,-0.05,0,-2.38,-0.77
-0.15,0.99,-0.05,0.14,-2.31,-0.84
-0.15,0.99,-0.05,0.14,-2.38,-0.77
-0.15,0.99,-0.05,0.07,-2.31,-0.98
-0.16,0.99,-0.05,0.21,-2.45,-0.7
-0.16,0.99,-0.05,0.42,-2.59,-0.7
-0.16,0.99,-0.05,0.21,-2.52,-0.77
-0.16,0.99,-0.05,-0.07,-2.45,-0.77
-0.16,0.99,-0.05,0,-2.24,-0.84
-0.15,0.99,-0.05,0.07,-2.31,-0.77
-0.15,0.99,-0.05,0.42,-2.38,-0.63
-0.16,0.99,-0.05,0.28,-2.31,-0.84
-0.16,0.99,-0.05,0.28,-2.52,-0.77
-0.16,0.99,-0.05,0.14,-2.38,-0.84
-0.15,0.99,-0.05,0.21,-2.38,-0.91
-0.15,0.99,-0.05,0.28,-2.52,-0.7
-0.15,0.99,-0.05,0.14,-2.59,-0.56
-0.15,0.99,-0.05,0.42,-2.59,-0.77
-0.15,0.99,-0.05,0.14,-2.45,-0.77
-0.16,0.99,-0.05,0.14,-2.38,-0.84
-0.16,0.99,-0.05,0.14,-2.24,-0.98
-0.15,0.99,-0.05,0.28,-2.38,-0.84
-0.16,0.99,-0.05,0.14,-2.31,-0.91
-0.15,0.99,-0.05,0.21,-2.38,-0.84
-0.15,0.99,-0.05,-0.28,-2.17,-0.98
-0.16,0.99,-0.05,0,-2.24,-0.84
-0.16,0.99,-0.05,0.21,-2.38,-0.91
-0.15,0.99,-0.05,0.14,-2.31,-0.7
-0.15,0.99,-0.05,0.07,-2.24,-0.84
-0.16,0.99,-0.05,0.14,-2.17,-0.98
-0.15,0.99,-0.05,-0.07,-2.31,-0.91
-0.15,0.99,-0.05,0.14,-2.38,-0.7
-0.16,0.99,-0.05,0,-2.38,-0.91
-0.16,0.99,-0.05,0.14,-2.45,-0.84
-0.15,0.99,-0.05,0,-2.38,-0.84
-0.16,0.99,-0.05,0.14,-2.31,-0.91
-0.15,0.99,-0.05,0,-2.45,-0.84
-0.15,0.99,-0.05,0.21,-2.59,-0.77
-0.15,0.99,-0.05,0.07,-2.45,-0.91
-0.15,0.99,-0.05,0.07,-2.31,-0.84
-0.16,0.99,-0.05,0.49,-2.59,-0.63
-0.16,0.99,-0.05,0.28,-2.52,-0.63
-0.16,0.99,-0.05,0.28,-2.24,-0.98
-0.16,0.99,-0.05,0.07,-2.38,-0.7
-0.15,0.99,-0.05,0.28,-2.38,-0.7
-0.15,0.99,-0.05,0.42,-2.52,-0.7
-0.15,0.99,-0.05,0.14,-2.38,-0.77
-0.15,0.99,-0.05,0.07,-2.38,-0.84
-0.15,0.99,-0.05,0.14,-2.38,-0.91
-0.15,0.99,-0.05,0.14,-2.24,-0.91
-0.15,0.99,-0.05,0.21,-2.31,-0.84
-0.16,0.99,-0.05,-0.07,-2.17,-0.98
-0.15,0.99,-0.05,-0.07,-2.31,-0.91
-0.16,0.99,-0.05,0.21,-2.45,-0.77
-0.16,0.99,-0.05,0,-2.45,-0.77
-0.16,0.99,-0.05,-0.21,-2.31,-0.98
-0.16,0.99,-0.05,0,-2.38,-0.98
-0.16,0.99,-0.05,-0.07,-2.17,-0.91
-0.16,0.99,-0.05,0.07,-2.38,-0.7
-0.16,0.99,-0.05,0.14,-2.38,-0.84
-0.15,0.99,-0.05,0.21,-2.38,-0.91
-0.16,0.99,-0.05,0.21,-2.52,-0.7
-0.16,0.99,-0.05,0.07,-2.38,-0.84
-0.15,0.99,-0.05,0.14,-2.38,-0.84
-0.16,0.99,-0.05,0.07,-2.52,-0.7
-0.15,0.99,-0.05,0.07,-2.38,-0.84
-0.15,0.99,-0.05,0,-2.31,-0.63
-0.16,0.99,-0.05,0.07,-2.31,-0.98
-0.15,0.99,-0.05,-0.07,-2.31,-0.84
-0.15,0.99,-0.05,0.07,-2.31,-0.98
-0.15,0.99,-0.05,0.14,-2.31,-0.91
-0.16,0.99,-0.05,0,-2.38,-0.7
-0.15,0.99,-0.05,0.07,-2.17,-0.84
-0.16,0.99,-0.05,0.21,-2.45,-0.77
-0.16,0.99,-0.05,0.14,-2.45,-0.77
-0.15,0.99,-0.05,0.14,-2.38,-0.91
-0.16,0.99,-0.05,-0.07,-2.24,-0.91
-0.15,0.99,-0.05,0.07,-2.31,-0.91
-0.15,0.99,-0.05,0.21,-2.45,-0.84
-0.15,0.99,-0.05,0.28,-2.52,-0.84
-0.15,0.99,-0.05,0.14,-2.24,-0.91
-0.16,0.99,-0.05,0.14,-2.45,-0.77
-0.16,0.99,-0.05,-0.14,-2.17,-0.98
-0.16,0.99,-0.05,0.07,-2.38,-0.84
-0.16,0.99,-0.05,0,-2.17,-0.98
-0.16,0.99,-0.05,0.07,-2.45,-0.84
-0.15,0.99,-0.05,0,-2.31,-0.91
-0.15,0.99,-0.05,0.21,-2.38,-0.77
-0.16,0.99,-0.05,0.14,-2.38,-0.84
-0.16,0.99,-0.05,0.28,-2.31,-0.91
-0.15,0.99,-0.05,0.14,-2.31,-0.77
-0.15,0.99,-0.05,-0.14,-2.31,-0.84
-0.15,0.99,-0.05,0.28,-2.45,-0.77
-0.16,0.99,-0.05,0.07,-2.24,-0.56
-0.15,0.99,-0.05,0.07,-2.38,-0.91
-0.15,0.99,-0.05,-0.07,-2.31,-0.84
-0.16,0.99,-0.05,0.28,-2.52,-0.84
-0.16,0.99,-0.05,0.42,-2.38,-0.77
-0.15,0.99,-0.05,0.14,-2.45,-0.91
-0.15,0.99,-0.05,0.42,-2.52,-0.84
-0.16,0.99,-0.05,0.14,-2.38,-0.77
-0.15,0.99,-0.05,-0.07,-2.31,-0.98
-0.16,0.99,-0.05,0.28,-2.45,-0.84
-0.15,0.99,-0.05,0.07,-2.45,-0.84
-0.16,0.99,-0.05,0,-2.38,-0.91
-0.15,0.99,-0.05,-0.07,-2.17,-0.91
-0.16,0.99,-0.05,0.14,-2.31,-0.91
-0.15,0.99,-0.05,-0.14,-2.31,-0.98
-0.15,0.99,-0.05,-0.07,-2.24,-0.91
-0.16,0.99,-0.05,0,-2.24,-0.91
-0.16,0.99,-0.05,0.14,-2.52,-0.84
-0.16,0.99,-0.05,0.14,-2.38,-0.91
-0.16,0.99,-0.05,0.14,-2.38,-0.7
-0.16,0.99,-0.05,0,-2.38,-0.77
-0.16,0.99,-0.05,0.63,-2.59,-0.56
-0.16,0.99,-0.05,0.28,-2.52,-0.84
-0.15,0.99,-0.05,0.42,-2.52,-0.77
-0.16,0.99,-0.05,0.35,-2.59,-0.84
-0.15,0.99,-0.05,0.21,-2.38,-0.84
-0.15,0.99,-0.05,0.35,-2.1,-0.91
-0.15,0.99,-0.05,0.28,-2.38,-0.84
-0.16,0.99,-0.05,0.14,-2.24,-0.91
-0.16,0.99,-0.05,-0.07,-2.24,-0.98
-0.15,0.99,-0.05,-0.14,-2.17,-0.91
-0.16,0.99,-0.05,0.07,-2.38,-0.91
-0.15,0.99,-0.05,0,-2.24,-0.84
-0.16,0.99,-0.05,0.07,-2.45,-0.77
-0.15,0.99,-0.05,0.07,-2.45,-0.84
-0.16,0.99,-0.05,0.14,-2.45,-0.77
-0.16,0.99,-0.05,0,-2.31,-0.91
-0.16,0.99,-0.05,0,-2.38,-0.77
-0.15,0.99,-0.05,0,-2.38,-0.98
-0.16,0.99,-0.05,0.35,-2.59,-0.7
-0.16,0.99,-0.05,0.42,-2.59,-0.77
-0.15,0.99,-0.05,0.49,-2.73,-0.77
-0.16,0.99,-0.05,0.28,-2.45,-0.77
-0.15,0.99,-0.05,0.07,-2.38,-0.91
-0.16,0.99,-0.05,0.28,-2.31,-0.84
-0.15,0.99,-0.05,0.35,-2.45,-0.91
-0.16,0.99,-0.05,0.42,-2.24,-0.77
-0.15,0.99,-0.05,0.14,-2.17,-0.84
-0.16,0.99,-0.05,0.07,-2.24,-0.77
-0.16,0.99,-0.05,0.21,-2.38,-0.84
-0.16,0.99,-0.05,0.35,-2.52,-0.7
-0.15,0.99,-0.05,0.14,-2.52,-0.77
-0.15,0.99,-0.05,0.07,-2.31,-0.98
-0.15,0.99,-0.05,0,-2.38,-0.91
-0.15,0.99,-0.05,0.21,-2.52,-0.77
-0.15,0.99,-0.05,0.35,-2.59,-0.7
-0.16,0.99,-0.05,0.14,-2.45,-0.84
-0.15,0.99,-0.05,0.14,-2.38,-1.05
-0.16,0.99,-0.05,0.21,-2.38,-0.98
-0.16,0.99,-0.05,0.07,-2.38,-0.7
-0.15,0.99,-0.05,0.07,-2.31,-0.77
-0.16,0.99,-0.05,0.14,-2.17,-0.7
-0.16,0.99,-0.05,0,-2.24,-0.84
-0.15,0.99,-0.05,0.28,-2.38,-0.7
-0.16,0.99,-0.05,0.28,-2.31,-0.77
-0.16,0.99,-0.05,0.28,-2.52,-0.56
-0.15,0.99,-0.05,0.21,-2.24,-0.84
-0.16,0.99,-0.05,0.49,-2.52,-0.77
-0.15,0.99,-0.05,0.28,-2.38,-0.77
-0.15,0.99,-0.05,0.07,-2.38,-0.98
-0.15,0.99,-0.05,0.21,-2.31,-0.91
-0.16,0.99,-0.05,0.42,-2.45,-0.98
-0.15,0.99,-0.05,0.14,-2.45,-0.7
-0.16,0.99,-0.05,0.21,-2.17,-0.84
-0.15,0.99,-0.05,0.14,-2.31,-0.84
-0.16,0.99,-0.05,0,-2.24,-0.91
-0.15,0.99,-0.05,0.42,-2.45,-0.63
-0.16,0.99,-0.05,-0.28,-2.17,-0.98
-0.15,0.99,-0.05,0,-2.24,-0.84
-0.15,0.99,-0.05,0,-2.31,-0.91
-0.15,0.99,-0.05,0.07,-2.24,-0.84
-0.16,0.99,-0.05,-0.14,-2.24,-0.98
-0.15,0.99,-0.05,0.21,-2.31,-0.84
-0.15,0.99,-0.05,0.07,-2.31,-0.84
-0.16,0.99,-0.05,-0.07,-2.17,-0.98
-0.16,0.99,-0.05,0.21,-2.38,-0.56
-0.16,0.99,-0.05,0.42,-2.24,-0.91
-0.16,0.99,-0.05,-17.71,-2.38,-0.91
-0.16,0.99,-0.05,0.21,-2.45,-0.77
-0.15,0.99,-0.05,0.14,-2.38,-0.77
-0.15,0.99,-0.05,0.07,-2.38,-0.84
-0.16,0.99,-0.05,0.07,-2.31,-0.77
-0.15,0.99,-0.05,0.21,-2.17,-0.98
-0.15,0.99,-0.05,0.28,-2.38,-0.84
-0.16,0.99,-0.05,0.07,-2.31,-0.91
-0.15,0.99,-0.05,0.35,-2.31,-0.77
-0.15,0.99,-0.05,0.21,-2.38,-0.84
-0.15,0.99,-0.05,0.21,-2.45,-0.84
-0.15,0.99,-0.05,0.21,-2.31,-0.91
-0.16,0.99,-0.05,0.28,-2.17,-0.77
-0.15,0.99,-0.05,0.35,-2.24,-0.98
-0.16,0.99,-0.05,0.35,-2.45,-0.77
-0.16,0.99,-0.05,0.56,-2.59,-0.7
-0.16,0.99,-0.05,0.21,-2.31,-0.91
-0.16,0.99,-0.05,0,-2.38,-0.98
-0.16,0.99,-0.05,0.07,-2.52,-0.63
-0.15,0.99,-0.05,0,-2.52,-0.77
-0.15,0.99,-0.05,0.14,-2.38,-0.84
-0.15,0.99,-0.05,0.49,-2.59,-0.63
-0.15,0.99,-0.05,0.07,-2.38,-0.91
-0.16,0.99,-0.05,0.21,-2.38,-0.84
-0.16,0.99,-0.05,0.28,-2.38,-0.98
-0.15,0.99,-0.05,0.07,-2.31,-0.77
-0.15,0.99,-0.05,0.28,-2.38,-0.77
-0.16,0.99,-0.05,0.21,-2.38,-0.77
-0.16,0.99,-0.05,0.07,-2.24,-0.84
-0.16,0.99,-0.05,-0.07,-2.17,-0.84
-0.16,0.99,-0.05,0.28,-2.38,-0.63
-0.16,0.99,-0.05,0,-2.24,-0.56
-0.15,0.99,-0.05,0.28,-2.24,-0.77
-0.16,0.99,-0.05,0.07,-2.45,-0.84
-0.16,0.99,-0.05,0.56,-2.66,-0.56
-0.16,0.99,-0.05,0.28,-2.45,-0.77
-0.15,0.99,-0.05,0.14,-2.38,-0.91
-0.15,0.99,-0.05,0.07,-2.38,-0.91
-0.15,0.99,-0.05,0.28,-2.45,-0.7
-0.15,0.99,-0.05,0.35,-2.31,-0.84
-0.15,0.99,-0.05,0.21,-2.31,-0.77
-0.15,0.99,-0.05,0.35,-2.31,-0.7
-0.15,0.99,-0.05,0.14,-2.38,-0.7
-0.15,0.99,-0.05,0.28,-2.31,-0.84
-0.15,0.99,-0.05,0.21,-2.38,-0.77
-0.15,0.99,-0.05,0.14,-2.45,-0.91
-0.15,0.99,-0.05,0.07,-2.38,-0.91
-0.16,0.99,-0.05,-0.07,-2.31,-0.91
-0.15,0.99,-0.05,0.07,-2.38,-0.84
-0.16,0.99,-0.05,0.21,-2.38,-0.77
-0.15,0.99,-0.05,0.21,-2.38,-0.84
-0.15,0.99,-0.05,0.28,-2.24,-0.91
-0.15,0.99,-0.05,0.35,-2.45,-0.7
-0.15,0.99,-0.05,-0.07,-2.31,-0.84
-0.16,0.99,-0.05,0.28,-2.45,-0.84
-0.15,0.99,-0.05,0.07,-2.31,-0.84
-0.16,0.99,-0.05,0.21,-2.52,-0.77
-0.16,0.99,-0.05,0.28,-2.38,-0.77
-0.15,0.99,-0.05,0.21,-2.38,-0.84
-0.16,0.99,-0.05,0.35,-2.45,-0.77
-0.16,0.99,-0.05,0.14,-2.31,-0.63
-0.16,0.99,-0.05,-0.14,-2.17,-0.91
-0.16,0.99,-0.05,0.07,-2.31,-0.84
-0.15,0.99,-0.05,0.28,-2.45,-0.84
-0.15,0.99,-0.05,0.07,-2.31,-0.98
-0.15,0.99,-0.05,0.14,-2.24,-0.84
-0.15,0.99,-0.05,0.35,-2.38,-0.84
-0.15,0.99,-0.05,0.35,-2.45,-0.91
-0.15,0.99,-0.05,0.21,-2.45,-0.84
-0.16,0.99,-0.05,0.07,-2.31,-0.91
-0.16,0.99,-0.05,-0.07,-2.31,-0.91
-0.16,0.99,-0.05,0.21,-2.45,-0.77
-0.15,0.99,-0.05,0.35,-2.45,-0.98
-0.15,0.99,-0.05,0.35,-2.52,-0.84
-0.15,0.99,-0.05,0.28,-2.52,-0.56
-0.15,0.99,-0.05,0.07,-2.24,-0.91
-0.15,0.99,-0.05,0.21,-2.38,-0.77
-0.15,0.99,-0.05,0.21,-2.31,-0.84
-0.15,0.99,-0.05,0.14,-2.38,-0.7
-0.16,0.99,-0.05,0.21,-2.31,-0.84
-0.15,0.99,-0.05,0.14,-2.45,-0.91
-0.15,0.99,-0.05,0.49,-2.17,-0.98
-0.16,0.99,-0.05,0,-2.38,-0.91
-0.15,0.99,-0.05,0.56,-2.59,-0.63
-0.16,0.99,-0.05,0,-2.45,-0.84
-0.16,0.99,-0.05,0.07,-2.52,-0.84
-0.16,0.99,-0.05,-0.21,-2.31,-0.77
-0.15,0.99,-0.05,0.28,-2.52,-0.84
-0.16,0.99,-0.05,-0.07,-2.1,-0.98
-0.15,0.99,-0.05,0.28,-2.38,-0.7
-0.15,0.99,-0.05,0.14,-2.38,-0.91
-0.16,0.99,-0.05,0.21,-2.45,-0.84
-0.16,0.99,-0.05,0.35,-2.52,-0.84
-0.15,0.99,-0.05,0.14,-2.38,-0.77
-0.16,0.99,-0.05,0.21,-2.45,-0.91
-0.15,0.99,-0.05,0.21,-2.24,-0.91
-0.15,0.99,-0.05,0.21,-2.45,-0.84
-0.15,0.99,-0.05,0,-2.17,-0.91
-0.15,0.99,-0.05,0,-2.38,-0.7
-0.15,0.99,-0.05,0.07,-2.45,-0.77
-0.15,0.99,-0.05,0.07,-2.31,-0.98
-0.16,0.99,-0.05,0.28,-2.38,-0.84
-0.16,0.99,-0.05,0.07,-2.1,-0.84
-0.15,0.99,-0.05,0.28,-2.38,-0.7
-0.16,0.99,-0.05,0.07,-2.31,-0.84
-0.16,0.99,-0.05,0.07,-2.38,-0.91
-0.16,0.99,-0.05,0.35,-2.52,-0.63
-0.15,0.99,-0.05,0.07,-2.45,-0.77
-0.16,0.99,-0.05,0.28,-2.45,-0.7
-0.15,0.99,-0.05,0.07,-2.38,-0.84
-0.16,0.99,-0.05,0.14,-2.38,-0.7
-0.15,0.99,-0.05,0.14,-2.45,-0.77
-0.15,0.99,-0.05,-0.07,-2.31,-0.91
-0.16,0.99,-0.05,-0.14,-2.24,-0.84
-0.15,0.99,-0.05,0.07,-2.31,-0.77
-0.15,0.99,-0.05,0.07,-2.17,-0.84
-0.16,0.99,-0.05,0.21,-2.45,-0.77
-0.16,0.99,-0.05,0.21,-2.38,-0.91
-0.15,0.99,-0.05,0.14,-2.31,-0.84
-0.16,0.99,-0.05,-0.07,-2.31,-0.84
-0.16,0.99,-0.05,0.07,-2.31,-0.77
-0.16,0.99,-0.05,0.21,-2.45,-0.91
-0.16,0.99,-0.05,0.21,-2.52,-0.77
-0.15,0.99,-0.05,0,-2.24,-0.91
-0.15,0.99,-0.05,0,-2.38,-0.84
-0.16,0.99,-0.05,0.14,-2.45,-0.63
-0.16,0.99,-0.05,0.21,-2.66,-0.7
-0.15,0.99,-0.05,0.14,-2.52,-0.63
-0.15,0.99,-0.05,0,-2.24,-0.91
-0.16,0.99,-0.05,0.07,-2.38,-0.84
-0.15,0.99,-0.05,0.21,-2.31,-0.77
-0.15,0.99,-0.05,-0.14,-2.24,-0.84
-0.15,0.99,-0.05,0.21,-2.38,-0.77
-0.15,0.99,-0.05,0.28,-2.17,-0.84
-0.15,0.99,-0.05,0.28,-2.31,-0.91
-0.15,0.99,-0.05,0,-2.24,-0.84
-0.15,0.99,-0.05,0.14,-2.38,-0.84
-0.16,0.99,-0.05,0.07,-2.52,-0.84
-0.15,0.99,-0.05,0.14,-2.45,-0.98
-0.15,0.99,-0.05,0.14,-2.52,-1.05
-0.15,0.99,-0.05,0.14,-2.45,-0.77
-0.15,0.99,-0.05,0.28,-2.45,-0.7
-0.15,0.99,-0.05,0.21,-2.45,-0.7
-0.15,0.99,-0.05,0.14,-2.38,-0.84
-0.16,0.99,-0.05,0.28,-2.45,-0.84
-0.15,0.99,-0.05,0.28,-2.38,-1.05
-0.16,0.99,-0.05,0.28,-2.31,-0.77
-0.16,0.99,-0.05,0.28,-2.24,-0.77
-0.16,0.99,-0.05,0.07,-2.38,-0.91
-0.16,0.99,-0.05,-0.14,-2.24,-0.98
-0.16,0.99,-0.05,0,-2.31,-0.98
-0.16,0.99,-0.05,0.28,-2.59,-0.98
-0.15,0.99,-0.05,0,-2.52,-0.77
-0.15,0.99,-0.05,0.07,-2.24,-1.12
-0.15,0.99,-0.05,0.14,-2.31,-0.98
-0.15,0.99,-0.05,0.07,-2.45,-0.77
-0.15,0.99,-0.05,0.21,-2.38,-0.77
-0.16,0.99,-0.05,0.21,-2.45,-0.84
-0.15,0.99,-0.05,0.14,-2.17,-0.77
-0.15,0.99,-0.05,0.14,-2.31,-0.7
-0.16,0.99,-0.05,-0.07,-2.17,-0.77
-0.15,0.99,-0.05,-0.21,-1.89,-0.98
-0.16,0.99,-0.05,0.21,-2.17,-0.77
-0.16,0.99,-0.05,-0.21,-2.03,-0.91
-0.16,0.99,-0.05,0.14,-2.17,-0.7
-0.15,0.99,-0.05,-0.07,-2.17,-0.77
-0.16,0.99,-0.05,0.07,-2.45,-0.77
-0.16,0.99,-0.05,-0.07,-2.31,-0.98
-0.16,0.99,-0.05,-0.07,-2.31,-0.98
-0.15,0.99,-0.05,0.28,-2.66,-0.77
-0.15,0.99,-0.05,0.07,-2.52,-0.84
-0.15,0.99,-0.05,0.14,-2.52,-0.84
-0.15,0.99,-0.05,0.14,-2.59,-0.91
-0.15,0.99,-0.05,0.21,-2.52,-0.84
-0.15,0.99,-0.05,0.14,-2.45,-0.91
-0.15,0.99,-0.05,0.28,-2.38,-0.77
-0.15,0.99,-0.05,0.35,-2.45,-0.77
-0.15,0.99,-0.05,0,-2.24,-0.91
-0.15,0.99,-0.05,0.21,-2.38,-0.7
-0.15,0.99,-0.05,0.21,-2.38,-0.91
-0.15,0.99,-0.05,0.07,-2.1,-0.84
-0.16,0.99,-0.05,0.35,-2.31,-0.77
-0.15,0.99,-0.05,0.14,-2.24,-0.91
-0.15,0.99,-0.05,0.07,-2.24,-0.84
-0.16,0.99,-0.05,0.21,-2.38,-0.77
-0.15,0.99,-0.05,0.14,-2.31,-0.98
-0.16,0.99,-0.05,0.14,-2.1,-1.05
-0.16,0.99,-0.05,0.21,-2.17,-0.98
-0.16,0.99,-0.05,-0.07,-2.38,-0.84
-0.16,0.99,-0.05,0.35,-2.59,-0.77
-0.16,0.99,-0.05,0.28,-2.52,-0.84
-0.15,0.99,-0.05,0,-2.38,-0.84
-0.15,0.99,-0.05,0.35,-2.45,-0.84
-0.15,0.99,-0.05,-0.07,-2.31,-0.77
-0.15,0.99,-0.05,0,-2.38,-0.91
-0.16,0.99,-0.05,0.35,-2.52,-0.7
-0.15,0.99,-0.05,0.14,-2.45,-0.77
-0.16,0.99,-0.05,0.14,-2.45,-0.84
-0.15,0.99,-0.05,0,-2.31,-1.05
-0.15,0.99,-0.05,0.07,-2.31,-0.77
-0.15,0.99,-0.05,0.07,-2.17,-0.91
-0.16,0.99,-0.05,0.21,-2.38,-0.77
-0.15,0.99,-0.05,0,-2.38,-0.84
-0.16,0.99,-0.05,0.42,-2.52,-0.77
-0.16,0.99,-0.05,0.07,-2.38,-0.84
-0.16,0.99,-0.05,0.14,-2.38,-0.77
-0.15,0.99,-0.05,0.28,-2.45,-0.77
-0.16,0.99,-0.05,0.28,-2.38,-0.84
-0.15,0.99,-0.05,0.14,-2.31,-0.84
-0.15,0.99,-0.05,0.07,-2.31,-0.77
-0.15,0.99,-0.05,0.21,-2.38,-0.77
-0.15,0.99,-0.05,-0.07,-2.17,-0.77
-0.16,0.99,-0.05,0.35,-2.38,-0.98
-0.15,0.99,-0.05,0.21,-2.45,-0.63
-0.16,0.99,-0.05,-0.07,-2.24,-0.84
-0.16,0.99,-0.05,-0.07,-2.17,-0.98
-0.16,0.99,-0.05,0.21,-2.45,-0.77
-0.16,0.99,-0.05,0.28,-2.73,-0.7
-0.15,0.99,-0.05,0.21,-2.59,-0.77
-0.16,0.99,-0.05,0.14,-2.45,-0.77
-0.16,0.99,-0.05,0.07,-2.38,-0.84
-0.15,0.99,-0.05,-17.71,-2.31,-0.98
-0.15,0.99,-0.05,0.07,-2.52,-0.84
-0.15,0.99,-0.05,-0.14,-2.38,-0.98
-0.15,0.99,-0.05,0.14,-2.31,-0.91
-0.16,0.99,-0.05,0.07,-2.45,-0.98
-0.15,0.99,-0.05,0.14,-2.45,-0.84
-0.16,0.99,-0.05,0.07,-2.38,-0.84
-0.15,0.99,-0.05,0.42,-2.45,-0.63
-0.15,0.99,-0.05,0.28,-2.45,-0.77
-0.15,0.99,-0.05,0.07,-2.31,-0.84
-0.15,0.99,-0.05,0,-2.24,-0.98
-0.16,0.99,-0.05,0.21,-2.38,-0.7
-0.16,0.99,-0.05,0.21,-2.17,-0.98
-0.15,0.99,-0.05,0.07,-2.45,-0.7
-0.15,0.99,-0.05,0.28,-2.38,-0.77
-0.16,0.99,-0.05,0.28,-2.45,-0.77
-0.16,0.99,-0.05,0.14,-2.45,-0.84
-0.16,0.99,-0.05,0.35,-2.59,-0.77
-0.16,0.99,-0.05,0.35,-2.52,-0.84
-0.16,0.99,-0.05,0.28,-2.45,-0.77
-0.15,0.99,-0.05,0.07,-2.24,-0.91
-0.15,0.99,-0.05,0,-2.31,-0.84
-0.15,0.99,-0.05,0.21,-2.38,-0.77
-0.15,0.99,-0.05,0.28,-2.38,-0.77
-0.16,0.99,-0.05,0.14,-2.38,-0.84
-0.16,0.99,-0.05,0.07,-2.38,-0.98
-0.15,0.99,-0.05,-0.07,-2.38,-0.77
-0.16,0.99,-0.05,-17.85,-2.17,-0.91
-0.15,0.99,-0.05,0,-2.17,-0.91
-0.16,0.99,-0.05,0.21,-2.45,-0.77
-0.15,0.99,-0.05,0.28,-2.38,-0.77
-0.16,0.99,-0.05,-0.07,-2.24,-0.91
-0.16,0.99,-0.05,0.07,-2.31,-0.91
-0.15,0.99,-0.05,0.28,-2.59,-0.7
-0.15,0.99,-0.05,0.35,-2.59,-0.63
-0.15,0.99,-0.05,0.14,-2.45,-0.98
-0.16,0.99,-0.05,0,-2.31,-0.91
-0.16,0.99,-0.05,0.21,-2.59,-0.7
-0.16,0.99,-0.05,-0.07,-2.24,-0.91
-0.16,0.99,-0.05,0.35,-2.45,-0.7
-0.16,0.99,-0.05,0.07,-2.24,-0.77
-0.15,0.99,-0.05,0.21,-2.31,-0.7
-0.16,0.99,-0.05,0.21,-2.45,-0.91
-0.15,0.99,-0.05,-0.07,-2.24,-0.91
-0.16,0.99,-0.05,0.35,-2.31,-0.84
-0.16,0.99,-0.05,0.35,-2.31,-0.77
-0.16,0.99,-0.05,0.28,-2.38,-0.77
-0.15,0.99,-0.05,0.28,-2.45,-0.77
-0.15,0.99,-0.05,0,-2.38,-0.98
-0.15,0.99,-0.05,0.28,-2.52,-0.84
-0.16,0.99,-0.05,0.28,-2.59,-0.63
-0.15,0.99,-0.05,0.35,-2.24,-0.91
-0.16,0.99,-0.05,0.28,-2.31,-0.84
-0.16,0.99,-0.05,0.07,-2.31,-0.84
-0.16,0.99,-0.05,-0.07,-2.24,-0.91
-0.15,0.99,-0.05,0.28,-2.52,-0.84
-0.15,0.99,-0.05,0.07,-2.24,-0.91
-0.15,0.99,-0.05,0.42,-2.38,-0.77
-0.15,0.99,-0.05,0.35,-2.38,-0.7
-0.16,0.99,-0.05,0.21,-2.38,-0.77
-0.16,0.99,-0.05,-0.07,-2.38,-1.05
-0.16,0.99,-0.05,0,-2.38,-0.84
-0.15,0.99,-0.05,0.14,-2.52,-0.77
-0.15,0.99,-0.05,0.14,-2.31,-0.91
-0.15,0.99,-0.05,0.21,-2.38,-0.77
-0.16,0.99,-0.05,0.14,-2.31,-0.77
-0.15,0.99,-0.05,0.21,-2.38,-0.77
-0.16,0.99,-0.05,0.14,-2.38,-0.84
-0.16,0.99,-0.05,0.21,-2.31,-0.77
-0.16,0.99,-0.05,0.14,-2.38,-0.91
-0.16,0.99,-0.05,0.21,-2.31,-0.91
-0.16,0.99,-0.05,0.49,-2.38,-0.84
-0.15,0.99,-0.05,0.14,-2.24,-0.84
-0.15,0.99,-0.05,0.07,-2.31,-0.91
-0.15,0.99,-0.05,0.14,-2.24,-0.84
-0.15,0.99,-0.05,0,-2.1,-0.84
-0.15,0.99,-0.05,0.14,-2.31,-0.7
-0.15,0.99,-0.05,0,-2.24,-0.84
-0.16,0.99,-0.05,0.14,-2.38,-0.77
-0.16,0.99,-0.05,0.21,-2.31,-0.77
-0.16,0.99,-0.05,0.21,-2.45,-0.7
-0.15,0.99,-0.05,0,-2.38,-0.63
-0.15,0.99,-0.05,0.07,-2.38,-0.7
-0.15,0.99,-0.05,0,-2.17,-0.91
-0.15,0.99,-0.05,0.42,-2.45,-0.7
-0.15,0.99,-0.05,-0.07,-2.24,-0.91
-0.15,0.99,-0.05,0.07,-2.38,-0.84
-0.15,0.99,-0.05,0.14,-2.31,-0.84
-0.15,0.99,-0.05,0.07,-2.31,-0.98
-0.15,0.99,-0.05,0.14,-2.38,-0.63
-0.15,0.99,-0.05,0.07,-2.24,-0.77
-0.16,0.99,-0.05,0.28,-2.31,-0.84
-0.15,0.99,-0.05,0.28,-2.38,-0.77
-0.16,0.99,-0.05,0.28,-2.38,-0.7
-0.15,0.99,-0.05,0.42,-2.52,-0.77
-0.15,0.99,-0.05,0.35,-2.59,-0.91
-0.15,0.99,-0.05,0.07,-2.31,-0.77
-0.15,0.99,-0.05,0.28,-2.31,-0.7
-0.16,0.99,-0.05,0.07,-2.31,-0.84
-0.15,0.99,-0.05,0.14,-2.31,-0.84
-0.15,0.99,-0.05,-0.07,-2.24,-0.91
-0.15,0.99,-0.05,0.21,-2.24,-0.77
-0.16,0.99,-0.05,0,-2.24,-0.91
-0.16,0.99,-0.05,0.07,-2.45,-0.7
-0.16,0.99,-0.05,0.07,-2.24,-0.91
-0.15,0.99,-0.05,0,-2.31,-0.91
-0.16,0.99,-0.05,-0.07,-2.17,-0.98
-0.16,0.99,-0.05,0.21,-2.38,-0.91
-0.16,0.99,-0.05,0.14,-2.31,-0.91
-0.15,0.99,-0.05,0.28,-2.45,-0.91
-0.15,0.99,-0.05,0.28,-2.38,-0.91
-0.16,0.99,-0.05,0.21,-2.45,-0.77
-0.16,0.99,-0.05,-0.07,-2.31,-0.84
-0.16,0.99,-0.05,0.42,-2.52,-0.77
-0.16,0.99,-0.05,0.14,-2.38,-0.91
-0.16,0.99,-0.05,0.07,-2.45,-0.84
-0.16,0.99,-0.05,0.28,-2.52,-0.84
-0.16,0.99,-0.05,0,-2.38,-0.84
-0.16,0.99,-0.05,0,-2.31,-0.84
-0.16,0.99,-0.05,0.21,-2.38,-0.84
-0.15,0.99,-0.05,0,-2.24,-0.84
-0.15,0.99,-0.05,0.28,-2.45,-0.84
-0.15,0.99,-0.05,0,-2.31,-0.77
-0.15,0.99,-0.05,0.35,-2.31,-0.77
-0.16,0.99,-0.05,0.14,-2.45,-0.84
-0.15,0.99,-0.05,0.21,-2.31,-0.84
-0.16,0.99,-0.05,0.07,-2.24,-1.05
-0.16,0.99,-0.05,0.21,-2.17,-1.05
-0.16,0.99,-0.05,0.14,-2.17,-0.91
-0.16,0.99,-0.05,0.21,-2.45,-0.84
-0.16,0.99,-0.05,-0.14,-2.31,-1.05
-0.15,0.99,-0.05,0.14,-2.52,-0.84
-0.15,0.99,-0.05,0.07,-2.38,-0.98
-0.15,0.99,-0.05,0,-2.45,-0.91
-0.16,0.99,-0.05,0,-2.31,-0.91
-0.15,0.99,-0.05,0.21,-2.45,-0.7
-0.16,0.99,-0.05,0.42,-2.52,-0.7
-0.15,0.99,-0.05,0.35,-2.45,-0.77
-0.15,0.99,-0.05,0.14,-2.31,-0.77
-0.15,0.99,-0.05,0.21,-2.38,-0.84
-0.15,0.99,-0.05,0.35,-2.52,-1.12
-0.15,0.99,-0.05,0.28,-2.31,-0.84
-0.15,0.99,-0.05,0.07,-2.45,-0.77
-0.16,0.99,-0.05,0.28,-2.45,-0.77
-0.15,0.99,-0.05,0.14,-2.31,-0.84
-0.16,0.99,-0.05,0.14,-2.45,-0.84
-0.16,0.99,-0.05,0,-2.31,-0.77
-0.16,0.99,-0.05,0,-2.31,-0.91
-0.15,0.99,-0.05,0.14,-2.24,-0.91
-0.15,0.99,-0.05,0.21,-2.38,-0.77
-0.15,0.99,-0.05,0.21,-2.38,-0.84
-0.16,0.99,-0.05,0.07,-2.31,-0.84
-0.15,0.99,-0.05,0.21,-2.45,-0.56
-0.15,0.99,-0.05,0.21,-2.38,-0.84
-0.15,0.99,-0.05,0.21,-2.31,-0.77
-0.15,0.99,-0.05,0.14,-2.24,-0.84
-0.15,0.99,-0.05,0.35,-2.38,-0.84
-0.16,0.99,-0.05,0.35,-2.66,-0.7
-0.16,0.99,-0.05,0.21,-2.52,-0.77
-0.16,0.99,-0.05,0.14,-2.31,-0.84
-0.15,0.99,-0.05,0.07,-2.38,-0.77
-0.15,0.99,-0.05,0.28,-2.38,-0.77
-0.16,0.99,-0.05,0.21,-2.45,-0.7
-0.16,0.99,-0.05,0.28,-2.38,-0.77
-0.15,0.99,-0.05,0.21,-2.45,-0.77
-0.15,0.99,-0.05,0.21,-2.38,-0.77
-0.15,0.99,-0.05,0.21,-2.45,-0.84
-0.16,0.99,-0.05,0.42,-2.52,-0.7
-0.16,0.99,-0.05,0.28,-2.45,-0.84
-0.15,0.99,-0.05,0.14,-2.31,-0.7
-0.15,0.99,-0.05,0.21,-2.38,-0.84
-0.15,0.99,-0.05,0.28,-2.45,-0.84
-0.15,0.99,-0.05,0,-2.24,-0.84
-0.16,0.99,-0.05,0.49,-2.66,-0.56
-0.16,0.99,-0.05,0.07,-2.31,-0.84
-0.15,0.99,-0.05,0.07,-2.38,-0.84
-0.16,0.99,-0.05,0.28,-2.52,-0.77
-0.15,0.99,-0.05,0.28,-2.31,-0.77
-0.15,0.99,-0.05,0.21,-2.38,-0.77
-0.15,0.99,-0.05,0.28,-2.45,-0.77
-0.15,0.99,-0.05,0.35,-2.45,-0.77
-0.16,0.99,-0.05,0.21,-2.38,-0.84
-0.15,0.99,-0.05,0.07,-2.31,-0.77
-0.16,0.99,-0.05,0.14,-2.38,-0.84
-0.15,0.99,-0.05,0.21,-2.45,-0.7
-0.16,0.99,-0.05,0.14,-2.38,-0.7
-0.15,0.99,-0.05,0.21,-2.45,-0.7
-0.15,0.99,-0.05,0.07,-2.31,-0.91
-0.16,0.99,-0.05,0.21,-2.38,-0.77
-0.15,0.99,-0.05,0.21,-2.45,-0.84
-0.15,0.99,-0.05,0.21,-2.45,-0.84
-0.15,0.99,-0.05,0.07,-2.31,-0.7
-0.15,0.99,-0.05,0.21,-2.38,-0.77
-0.16,0.99,-0.05,0.21,-2.38,-0.77
-0.15,0.99,-0.05,0.14,-2.31,-0.77
-0.16,0.99,-0.05,0.14,-2.38,-0.84
-0.16,0.99,-0.05,0.14,-2.45,-0.77
-0.16,0.99,-0.05,0.07,-2.52,-0.84
-0.15,0.99,-0.05,0.14,-2.52,-0.77
-0.15,0.99,-0.05,0,-2.45,-0.77
-0.15,0.99,-0.05,0.28,-2.45,-0.84
-0.16,0.99,-0.05,-17.85,-2.24,-0.91
-0.16,0.99,-0.05,0.21,-2.31,-0.77
-0.16,0.99,-0.05,0.07,-2.45,-0.77
-0.15,0.99,-0.05,0.14,-2.24,-0.77
-0.16,0.99,-0.05,-17.57,-2.31,-0.98
-0.16,0.99,-0.05,0.49,-2.52,-0.63
-0.15,0.99,-0.05,0.14,-2.38,-0.77
-0.15,0.99,-0.05,0.14,-2.31,-0.84
-0.16,0.99,-0.05,0.14,-2.31,-0.91
-0.15,0.99,-0.05,0,-2.24,-0.77
-0.16,0.99,-0.05,0.07,-2.45,-0.77
-0.15,0.99,-0.05,0.49,-2.59,-0.63
-0.16,0.99,-0.05,0.14,-2.24,-0.84
-0.15,0.99,-0.05,0.21,-2.45,-0.7
-0.15,0.99,-0.05,0,-2.24,-0.77
-0.15,0.99,-0.05,0.07,-2.31,-0.77
-0.15,0.99,-0.05,0.28,-2.45,-0.84
-0.15,0.99,-0.05,0.07,-2.31,-0.84
-0.15,0.99,-0.05,-0.07,-2.24,-0.98
-0.15,0.99,-0.05,0,-2.31,-0.98
-0.15,0.99,-0.05,-0.07,-2.31,-0.98
-0.16,0.99,-0.05,0.07,-2.31,-0.77
-0.16,0.99,-0.05,-0.14,-2.24,-0.91
-0.16,0.99,-0.05,0.07,-2.45,-0.63
-0.16,0.99,-0.05,-17.71,-2.24,-0.98
-0.16,0.99,-0.05,0,-2.31,-0.84
-0.15,0.99,-0.05,0.21,-2.38,-0.84
-0.15,0.99,-0.05,-0.07,-2.17,-0.98
-0.16,0.99,-0.05,0.07,-2.31,-0.63
-0.16,0.99,-0.05,0.07,-2.38,-0.91
-0.16,0.99,-0.05,0.28,-2.38,-0.84
-0.16,0.99,-0.05,0.42,-2.38,-0.77
-0.16,0.99,-0.05,0.35,-2.52,-0.7
-0.15,0.99,-0.05,0.21,-2.45,-0.84
-0.15,0.99,-0.05,0.28,-2.45,-0.77
-0.16,0.99,-0.05,0.07,-2.31,-0.7
-0.15,0.99,-0.05,0.14,-2.38,-0.77
-0.15,0.99,-0.05,0,-2.24,-0.77
-0.16,0.99,-0.05,0.21,-2.38,-0.77
-0.16,0.99,-0.05,0,-2.24,-0.98
-0.15,0.99,-0.05,0.14,-2.38,-0.77
-0.15,0.99,-0.05,0.07,-2.38,-0.84
-0.16,0.99,-0.05,0.28,-2.45,-0.77
-0.16,0.99,-0.05,0,-2.17,-0.98
-0.16,0.99,-0.05,0.14,-2.59,-0.7
-0.15,0.99,-0.05,-0.14,-2.1,-0.98
-0.15,0.99,-0.05,0.21,-2.45,-0.56
-0.16,0.99,-0.05,0.21,-2.45,-0.77
-0.15,0.99,-0.05,0.07,-2.59,-0.63
-0.15,0.99,-0.05,0.28,-2.45,-0.77
-0.15,0.99,-0.05,-0.14,-2.38,-0.98
-0.15,0.99,-0.05,-0.07,-2.38,-0.91
-0.15,0.99,-0.05,-0.07,-2.31,-0.84
-0.16,0.99,-0.05,-0.21,-2.17,-0.91
-0.15,0.99,-0.05,0.07,-2.38,-0.84
-0.15,0.99,-0.05,0.21,-2.24,-0.84
-0.15,0.99,-0.05,0,-2.31,-0.77
-0.16,0.99,-0.05,0.21,-2.38,-0.77
-0.16,0.99,-0.05,0.21,-2.45,-0.77
-0.15,0.99,-0.05,0.35,-2.31,-0.77
-0.15,0.99,-0.05,-17.71,-2.17,-0.91
-0.16,0.99,-0.05,0.21,-2.38,-0.77
-0.16,0.99,-0.05,-0.07,-2.38,-0.91
-0.16,0.99,-0.05,0,-2.45,-0.84
-0.15,0.99,-0.05,0.14,-2.59,-0.77
-0.16,0.99,-0.05,0.07,-2.38,-0.84
-0.16,0.99,-0.05,0.07,-2.24,-0.91
-0.15,0.99,-0.05,0.28,-2.45,-0.77
-0.16,0.99,-0.05,0.07,-2.38,-0.84
-0.15,0.99,-0.05,0.07,-2.31,-0.91
-0.15,0.99,-0.05,0.14,-2.31,-0.7
-0.16,0.99,-0.05,0.35,-2.45,-0.91
-0.15,0.99,-0.05,0.14,-2.24,-0.84
-0.15,0.99,-0.05,0.21,-2.45,-0.77
-0.16,0.99,-0.05,0.14,-2.38,-0.84
-0.15,0.99,-0.05,0.07,-2.38,-0.77
-0.16,0.99,-0.05,0.07,-2.31,-0.77
-0.15,0.99,-0.05,0.14,-2.45,-1.12
-0.16,0.99,-0.05,0,-2.38,-0.91
-0.16,0.99,-0.05,0,-2.45,-0.84
-0.15,0.99,-0.05,0.21,-2.45,-0.91
-0.16,0.99,-0.05,0.35,-2.45,-0.63
-0.16,0.99,-0.05,0.21,-2.38,-0.84
-0.15,0.99,-0.05,0.14,-2.45,-0.84
-0.15,0.99,-0.05,0,-2.31,-1.05
-0.16,0.99,-0.05,0.07,-2.31,-0.91
-0.15,0.99,-0.05,0.14,-2.38,-0.7
-0.15,0.99,-0.05,0.07,-2.31,-0.77
-0.16,0.99,-0.05,0.21,-2.38,-0.84
-0.16,0.99,-0.05,0,-2.38,-0.91
-0.16,0.99,-0.05,0.21,-2.38,-0.77
-0.16,0.99,-0.05,0.28,-2.45,-0.84
-0.15,0.99,-0.05,0.14,-2.31,-0.77
-0.16,0.99,-0.05,0.14,-2.38,-0.77
-0.16,0.99,-0.05,-0.07,-2.24,-0.98
-0.16,0.99,-0.05,0.14,-2.24,-0.91
-0.16,0.99,-0.05,0,-2.17,-0.84
-0.16,0.99,-0.05,0.21,-2.45,-0.98
-0.16,0.99,-0.05,0.14,-2.38,-0.77
-0.15,0.99,-0.05,0.28,-2.17,-0.91
-0.16,0.99,-0.05,0,-2.31,-0.84
-0.15,0.99,-0.05,0,-2.24,-0.84
-0.16,0.99,-0.05,0.42,-2.52,-0.7
-0.16,0.99,-0.05,0.35,-2.59,-0.77
-0.15,0.99,-0.05,0.07,-2.45,-0.98
-0.15,0.99,-0.05,0,-2.38,-0.91
-0.15,0.99,-0.05,0.07,-2.45,-0.84
-0.15,0.99,-0.05,0.21,-2.45,-0.7
-0.15,0.99,-0.05,0.14,-2.38,-0.84
-0.15,0.99,-0.05,0,-2.31,-0.84
-0.16,0.99,-0.05,0.28,-2.24,-0.77
-0.15,0.99,-0.05,0.14,-2.38,-0.63
-0.16,0.99,-0.05,0.28,-2.1,-0.98
-0.15,0.99,-0.05,0.21,-2.24,-0.91
-0.15,0.99,-0.05,-0.21,-2.17,-0.91
-0.15,0.99,-0.05,0.14,-2.38,-0.98
-0.16,0.99,-0.05,0.07,-2.31,-0.77
-0.15,0.99,-0.05,0.21,-2.24,-0.98
-0.16,0.99,-0.05,0.28,-2.45,-0.84
-0.16,0.99,-0.05,0.14,-2.38,-0.84
-0.15,0.99,-0.05,0.35,-2.45,-0.7
-0.16,0.99,-0.05,0.14,-2.45,-0.63
-0.15,0.99,-0.05,0.07,-2.38,-0.91
-0.15,0.99,-0.05,-0.07,-2.17,-0.91
-0.16,0.99,-0.05,17.85,-2.31,-0.91
-0.16,0.99,-0.05,0,-2.24,-0.98
-0.16,0.99,-0.05,0.07,-2.38,-0.91
-0.16,0.99,-0.05,0.35,-2.59,-0.63
-0.16,0.99,-0.05,0.28,-2.52,-0.77
-0.15,0.99,-0.05,-0.14,-2.31,-0.98
-0.16,0.99,-0.05,0.07,-2.38,-0.84
-0.15,0.99,-0.05,0,-2.24,-0.84
-0.15,0.99,-0.05,0.07,-2.31,-0.84
-0.16,0.99,-0.05,0.28,-2.45,-0.77
-0.15,0.99,-0.06,0.56,-2.17,-1.05
-0.15,0.99,-0.06,0,-2.03,-1.19
-0.15,0.99,-0.06,-0.42,-2.03,-1.33
-0.15,0.99,-0.06,-0.7,-2.1,-1.4
-0.15,0.99,-0.06,-0.84,-2.03,-1.26
-0.15,0.99,-0.06,-1.12,-1.82,-1.33
-0.15,0.99,-0.06,-0.91,-1.61,-1.4
-0.16,0.99,-0.06,-1.19,-1.75,-1.4
-0.16,0.99,-0.05,-1.26,-1.82,-1.4
-0.16,0.99,-0.05,-1.47,-1.75,-1.54
-0.16,0.99,-0.05,-1.33,-1.68,-1.47
-0.16,0.99,-0.04,-1.19,-1.68,-1.54
-0.16,0.99,-0.04,-1.33,-1.89,-1.4
-0.16,0.99,-0.04,-1.4,-2.03,-1.4
-0.16,0.99,-0.04,-0.98,-2.17,-1.33
-0.16,0.99,-0.04,-0.98,-2.03,-1.47
-0.16,0.99,-0.04,-0.28,-2.38,-1.05
-0.16,0.99,-0.05,-0.35,-2.38,-0.98
-0.16,0.99,-0.04,-0.14,-2.38,-1.26
-0.16,0.99,-0.05,0.07,-2.59,-1.12
-0.16,0.99,-0.04,0,-2.66,-1.12
-0.16,0.99,-0.04,0.14,-2.73,-0.98
-0.16,0.99,-0.04,0.07,-2.66,-0.98
-0.16,0.99,-0.04,0,-2.59,-0.91
-0.15,0.99,-0.05,0.21,-2.73,-1.05
-0.15,0.99,-0.05,0.49,-2.73,-0.56
-0.16,0.99,-0.05,0.63,-2.52,-0.84
-0.16,0.99,-0.05,0.56,-2.52,-0.84
-0.16,0.99,-0.05,0.7,-2.38,-0.84
-0.16,0.99,-0.05,0.56,-2.38,-0.84
-0.15,0.99,-0.05,0.56,-2.45,-0.7
-0.15,0.99,-0.05,0.56,-2.45,-0.63
-0.16,0.99,-0.05,0.56,-2.45,-0.77
-0.15,0.99,-0.05,0.42,-2.66,-0.7
-0.16,0.99,-0.05,0.21,-2.45,-0.84
-0.15,0.99,-0.05,0.28,-2.59,-0.91
-0.15,0.99,-0.05,0.07,-2.38,-0.84
-0.16,0.99,-0.05,0.21,-2.24,-0.77
-0.15,0.99,-0.05,0.21,-2.17,-0.84
-0.16,0.99,-0.05,0.14,-2.17,-0.77
-0.16,0.99,-0.05,0.14,-1.96,-0.91
-0.16,0.99,-0.05,0.49,-2.24,-0.77
-0.16,0.99,-0.05,0.14,-2.1,-0.98
-0.16,0.99,-0.05,0.28,-2.38,-0.98
-0.16,0.99,-0.05,0.35,-2.52,-0.77
-0.16,0.99,-0.05,0.14,-2.52,-0.77
-0.16,0.99,-0.05,0.35,-2.59,-0.7
-0.15,0.99,-0.05,0.35,-2.73,-0.84
-0.15,0.99,-0.05,0.42,-2.73,-0.91
-0.15,0.99,-0.05,0.21,-2.52,-0.77
-0.16,0.99,-0.05,0.28,-2.59,-0.84
-0.16,0.99,-0.05,0.42,-2.52,-0.77
-0.15,0.99,-0.05,0.35,-2.45,-0.84
-0.15,0.99,-0.05,0.07,-2.31,-0.98
-0.15,0.99,-0.05,0.28,-2.45,-0.91
-0.16,0.99,-0.05,0.14,-2.38,-0.91
-0.15,0.99,-0.05,0.21,-2.38,-0.84
-0.15,0.99,-0.05,0,-2.24,-0.77
-0.15,0.99,-0.05,0.07,-2.31,-0.91
-0.16,0.99,-0.05,-0.07,-2.38,-0.7
-0.16,0.99,-0.05,0.07,-2.24,-0.84
-0.16,0.99,-0.05,-0.07,-2.17,-0.91
-0.16,0.99,-0.05,0,-2.24,-0.91
-0.16,0.99,-0.05,0,-2.24,-0.84
-0.16,0.99,-0.05,0.07,-2.45,-0.84
-0.16,0.99,-0.05,0,-2.52,-0.84
-0.16,0.99,-0.05,17.85,-2.45,-0.77
-0.16,0.99,-0.05,-0.21,-2.45,-0.84
-0.16,0.99,-0.05,0,-2.66,-0.91
-0.16,0.99,-0.05,0.07,-2.66,-0.7
-0.15,0.99,-0.05,-0.07,-2.52,-0.7
-0.15,0.99,-0.05,0.14,-2.45,-0.77
-0.15,0.99,-0.05,0.21,-2.17,-0.98
-0.15,0.99,-0.05,0.07,-2.17,-0.91
-0.15,0.99,-0.05,0.21,-2.1,-0.84
-0.15,0.99,-0.05,0.63,-2.17,-0.7
-0.15,0.99,-0.05,0.49,-2.17,-0.84
-0.16,0.99,-0.05,0.35,-2.17,-1.19
-0.16,0.99,-0.05,0.14,-2.17,-0.91
-0.16,0.99,-0.05,0,-2.45,-0.84
-0.16,0.99,-0.05,0.14,-2.52,-0.77
-0.16,0.99,-0.05,0.14,-2.52,-0.84
-0.16,0.99,-0.05,0.14,-2.66,-0.84
-0.16,0.99,-0.05,-0.14,-2.45,-0.91
-0.16,0.99,-0.05,0.35,-2.59,-0.77
-0.16,0.99,-0.05,0,-2.17,-0.91
-0.16,0.99,-0.05,0.07,-2.59,-0.63
-0.16,0.99,-0.05,0.14,-2.45,-0.7
-0.16,0.99,-0.05,0.14,-2.38,-0.84
-0.15,0.99,-0.05,0,-2.31,-0.91
-0.15,0.99,-0.05,0.35,-2.45,-0.56
-0.15,0.99,-0.05,0.21,-2.52,-0.98
-0.16,0.99,-0.05,0.14,-2.59,-0.77
-0.16,0.99,-0.05,0,-2.38,-0.91
-0.16,0.99,-0.05,0.07,-2.38,-0.84
-0.16,0.99,-0.05,0.14,-2.31,-0.84
-0.15,0.99,-0.05,-0.07,-2.17,-0.98
-0.16,0.99,-0.05,0,-2.17,-0.77
-0.16,0.99,-0.05,0.07,-1.96,-0.98
-0.16,0.99,-0.05,-0.14,-2.31,-0.77
-0.16,0.99,-0.05,0.21,-2.38,-0.7
-0.16,0.99,-0.04,0.14,-2.31,-0.84
-0.16,0.99,-0.05,0.28,-2.52,-0.77
-0.16,0.99,-0.05,0.28,-2.45,-0.63
-0.15,0.99,-0.05,0.63,-2.8,-0.84
-0.15,0.99,-0.05,0.35,-2.59,-0.63
-0.16,0.99,-0.05,0.28,-2.38,-0.77
-0.16,0.99,-0.05,0.35,-2.52,-0.84
-0.16,0.99,-0.05,0.35,-2.52,-0.77
-0.16,0.99,-0.05,0.21,-2.38,-0.91
-0.16,0.99,-0.05,0.14,-2.38,-0.91
-0.15,0.99,-0.05,0.14,-2.45,-0.56
-0.15,0.99,-0.05,-0.07,-2.31,-0.84
-0.16,0.99,-0.05,17.85,-2.31,-0.84
-0.15,0.99,-0.05,-0.07,-2.31,-0.84
-0.16,0.99,-0.05,0.28,-2.59,-0.77
-0.16,0.99,-0.05,-0.07,-2.17,-0.91
-0.16,0.99,-0.05,0.07,-2.31,-0.84
-0.16,0.99,-0.05,0.14,-2.24,-0.91
-0.16,0.99,-0.05,0,-2.52,-0.7
-0.15,0.99,-0.05,0.28,-2.38,-0.77
-0.16,0.99,-0.05,0.07,-2.38,-0.77
-0.15,0.99,-0.05,0,-2.45,-0.91
-0.16,0.99,-0.05,0.14,-2.45,-0.56
-0.15,0.99,-0.05,0.21,-2.38,-0.91
-0.15,0.99,-0.05,0.14,-2.66,-0.56
-0.16,0.99,-0.05,0.14,-2.24,-0.91
-0.16,0.99,-0.05,0.21,-2.38,-0.84
-0.16,0.99,-0.05,0.35,-2.45,-0.84
-0.16,0.99,-0.05,0.14,-2.24,-0.7
-0.16,0.99,-0.05,0.28,-2.38,-0.84
-0.16,0.99,-0.05,0.07,-2.24,-0.84
-0.16,0.99,-0.05,0.07,-2.45,-0.84
-0.15,0.99,-0.05,0.28,-2.52,-0.77
-0.16,0.99,-0.05,0.21,-2.45,-0.77
-0.15,0.99,-0.05,0.42,-2.45,-0.63
-0.15,0.99,-0.05,0.28,-2.45,-0.77
-0.15,0.99,-0.05,0.35,-2.45,-0.7
-0.15,0.99,-0.05,-0.07,-2.31,-0.98
-0.15,0.99,-0.05,0.21,-2.52,-0.98
-0.16,0.99,-0.05,-0.14,-2.38,-0.98
-0.15,0.99,-0.05,0.07,-2.38,-0.98
-0.16,0.99,-0.05,0.07,-2.45,-0.77
-0.16,0.99,-0.05,-0.07,-2.45,-0.84
-0.16,0.99,-0.05,0,-2.31,-0.91
-0.16,0.99,-0.05,-0.07,-2.31,-0.91
-0.16,0.99,-0.05,0,-2.38,-0.84
-0.16,0.99,-0.05,0.14,-2.45,-0.91
-0.16,0.99,-0.05,0.07,-2.45,-0.77
-0.16,0.99,-0.05,0,-2.17,-0.91
-0.16,0.99,-0.05,0.07,-2.45,-0.77
-0.16,0.99,-0.05,0.42,-2.45,-0.7
-0.15,0.99,-0.05,0.49,-2.66,-0.63
-0.16,0.99,-0.05,0.28,-2.45,-0.84
-0.15,0.99,-0.05,0.21,-2.38,-0.7
-0.16,0.99,-0.05,0.35,-2.45,-0.91
-0.15,0.99,-0.05,0.35,-2.38,-0.7
-0.16,0.99,-0.05,0.21,-2.38,-0.91
-0.16,0.99,-0.05,0.35,-2.52,-0.77
-0.16,0.99,-0.05,0.21,-2.45,-0.7
-0.16,0.99,-0.05,-0.07,-2.31,-0.91
-0.15,0.99,-0.05,0,-2.24,-0.77
-0.16,0.99,-0.05,0.14,-2.38,-0.84
-0.16,0.99,-0.05,0.14,-2.1,-1.12
-0.16,0.99,-0.05,0.28,-2.31,-0.84
-0.15,0.99,-0.05,0,-2.17,-0.84
-0.16,0.99,-0.05,0.14,-2.38,-0.84
-0.16,0.99,-0.05,0.14,-2.38,-0.7
-0.15,0.99,-0.05,0.07,-2.31,-0.77
-0.16,0.99,-0.05,0.28,-2.38,-0.84
-0.16,0.99,-0.05,0.21,-2.52,-0.56
-0.16,0.99,-0.05,0.14,-2.38,-0.84
-0.15,0.99,-0.05,0.35,-2.31,-0.77
-0.16,0.99,-0.05,0.07,-2.31,-0.84
-0.16,0.99,-0.05,0.28,-2.52,-0.84
-0.16,0.99,-0.05,0.14,-2.38,-0.98
-0.16,0.99,-0.05,-0.07,-2.52,-0.63
-0.16,0.99,-0.05,-0.07,-2.24,-0.98
-0.16,0.99,-0.05,0.07,-2.24,-0.84
-0.16,0.99,-0.05,0.14,-2.38,-0.77
-0.15,0.99,-0.05,0.07,-2.24,-0.98
-0.16,0.99,-0.05,0,-2.38,-0.98
-0.16,0.99,-0.05,0,-2.31,-0.91
-0.15,0.99,-0.05,0.07,-2.24,-0.91
-0.16,0.99,-0.05,0.28,-2.38,-0.7
-0.16,0.99,-0.05,-0.21,-2.17,-0.91
-0.15,0.99,-0.05,0.07,-2.31,-0.84
-0.15,0.99,-0.05,0,-2.24,-0.91
-0.15,0.99,-0.05,0,-2.31,-0.91
-0.16,0.99,-0.05,0.14,-2.31,-0.84
-0.15,0.99,-0.05,0.28,-2.45,-0.7
-0.16,0.99,-0.05,0.35,-2.38,-0.7
-0.15,0.99,-0.05,0.21,-2.38,-0.91
-0.16,0.99,-0.05,0.14,-2.38,-0.91
-0.16,0.99,-0.05,0.07,-2.24,-0.98
-0.16,0.99,-0.05,0.35,-2.45,-0.7
-0.15,0.99,-0.05,0.14,-2.17,-1.05
-0.16,0.99,-0.05,0.07,-2.66,-0.56
-0.16,0.99,-0.05,-0.14,-2.31,-0.98
-0.16,0.99,-0.05,0.35,-2.45,-0.84
-0.16,0.99,-0.05,0.21,-2.45,-0.77
-0.15,0.99,-0.05,0.35,-2.45,-0.7
-0.15,0.99,-0.05,0.14,-2.31,-0.77
-0.16,0.99,-0.05,0,-2.38,-0.84
-0.16,0.99,-0.05,0.21,-2.52,-0.77
-0.16,0.99,-0.05,-0.14,-2.31,-0.91
-0.16,0.99,-0.05,0.35,-2.59,-0.63
-0.16,0.99,-0.05,0.28,-2.66,-0.7
-0.15,0.99,-0.05,-0.07,-2.38,-0.98
-0.15,0.99,-0.05,0.28,-2.45,-0.56
-0.16,0.99,-0.05,0.07,-2.38,-0.91
-0.16,0.99,-0.05,0.14,-2.31,-0.91
-0.15,0.99,-0.05,0.07,-2.24,-0.77
-0.16,0.99,-0.05,0.21,-2.38,-0.7
-0.16,0.99,-0.05,0.21,-2.38,-0.91
-0.16,0.99,-0.05,0.28,-2.45,-0.84
-0.16,0.99,-0.05,0.14,-2.24,-0.77
-0.16,0.99,-0.05,0.21,-2.1,-0.91
-0.16,0.99,-0.05,0,-2.24,-0.91
-0.16,0.99,-0.05,0.21,-2.31,-0.84
-0.16,0.99,-0.05,0.14,-2.31,-0.84
-0.16,0.99,-0.05,-0.07,-2.38,-0.84
-0.16,0.99,-0.05,0,-2.45,-0.84
-0.16,0.99,-0.05,0.14,-2.24,-0.98
-0.15,0.99,-0.05,0.07,-2.59,-0.84
-0.16,0.99,-0.05,-0.21,-2.31,-0.84
-0.15,0.99,-0.05,0,-2.52,-0.77
-0.16,0.99,-0.05,-0.07,-2.45,-0.84
-0.15,0.99,-0.05,0.07,-2.45,-0.7
-0.15,0.99,-0.05,0.14,-2.17,-0.77
-0.16,0.99,-0.05,-0.14,-2.24,-0.7
-0.16,0.99,-0.05,0,-2.24,-0.91
-0.15,0.99,-0.05,0.07,-2.31,-0.84
-0.16,0.99,-0.05,-0.14,-2.17,-0.98
-0.15,0.99,-0.05,0.21,-2.38,-0.84
-0.15,0.99,-0.05,0.21,-2.52,-0.7
-0.16,0.99,-0.05,0.14,-2.38,-0.63
-0.16,0.99,-0.05,0.07,-2.24,-0.84
-0.16,0.99,-0.04,0.21,-2.45,-0.84
-0.16,0.99,-0.05,0.28,-2.45,-0.77
-0.16,0.99,-0.05,0.21,-2.52,-0.91
-0.15,0.99,-0.05,0.14,-2.24,-0.91
-0.16,0.99,-0.05,0.28,-2.45,-0.56
-0.16,0.99,-0.05,0.28,-2.38,-0.77
-0.15,0.99,-0.05,0.21,-2.45,-0.7
-0.16,0.99,-0.05,0.35,-2.45,-0.7
-0.16,0.99,-0.05,0.21,-2.45,-0.7
-0.16,0.99,-0.05,0.35,-2.45,-0.77
-0.16,0.99,-0.05,0.35,-2.45,-0.84
-0.15,0.99,-0.05,0.14,-2.17,-0.91
-0.15,0.99,-0.05,0.21,-2.38,-0.84
-0.15,0.99,-0.05,0.21,-2.45,-0.84
-0.15,0.99,-0.05,0.14,-2.31,-0.84
-0.15,0.99,-0.05,0,-2.38,-1.05
-0.16,0.99,-0.05,-0.07,-2.17,-0.84
-0.16,0.99,-0.05,0.07,-2.38,-0.98
-0.16,0.99,-0.05,0,-2.52,-0.7
-0.16,0.99,-0.05,0,-2.17,-0.91
-0.16,0.99,-0.05,0.07,-2.31,-0.84
-0.16,0.99,-0.05,0,-2.17,-0.91
-0.16,0.99,-0.05,0.14,-2.45,-0.77
-0.16,0.99,-0.05,0.21,-2.52,-0.84
-0.16,0.99,-0.05,0.21,-2.38,-0.98
-0.16,0.99,-0.05,-0.07,-2.24,-0.98
-0.16,0.99,-0.05,0.21,-2.38,-0.7
-0.16,0.99,-0.05,0.14,-2.38,-0.84
-0.16,0.99,-0.05,0.07,-2.38,-0.84
-0.16,0.99,-0.05,0.21,-2.24,-0.91
-0.16,0.99,-0.05,0.35,-2.45,-0.77
-0.15,0.99,-0.05,0.35,-2.38,-0.7
-0.16,0.99,-0.05,0.42,-2.24,-0.98
-0.16,0.99,-0.05,0.42,-2.52,-0.77
-0.16,0.99,-0.05,0.35,-2.59,-0.84
-0.16,0.99,-0.05,0.28,-2.59,-0.7
-0.16,0.99,-0.05,0.28,-2.45,-0.77
-0.15,0.99,-0.05,0.14,-2.38,-0.77
-0.16,0.99,-0.05,0.21,-2.52,-0.77
-0.15,0.99,-0.05,0.14,-2.52,-0.7
-0.16,0.99,-0.05,0.14,-2.24,-0.84
-0.16,0.99,-0.05,0.14,-2.31,-0.84
-0.16,0.99,-0.05,0.14,-2.38,-0.84
-0.16,0.99,-0.05,0.21,-2.45,-0.7
-0.15,0.99,-0.05,0.14,-2.38,-0.84
-0.16,0.99,-0.05,0.42,-2.38,-0.77
-0.16,0.99,-0.05,0.21,-2.31,-0.84
-0.15,0.99,-0.05,0.21,-2.24,-0.7
-0.16,0.99,-0.05,0.35,-2.45,-0.7
-0.16,0.99,-0.05,0,-2.24,-0.98
-0.16,0.99,-0.05,-0.07,-2.1,-0.91
-0.16,0.99,-0.05,0.07,-2.31,-0.63
-0.16,0.99,-0.05,0.14,-2.17,-0.91
-0.16,0.99,-0.05,-17.78,-2.24,-0.98
-0.16,0.99,-0.05,0.07,-2.45,-0.84
-0.16,0.99,-0.05,0.07,-2.38,-0.91
-0.16,0.99,-0.05,0.14,-2.38,-0.77
-0.16,0.99,-0.05,0.28,-2.45,-0.84
-0.16,0.99,-0.05,0,-2.17,-0.98
-0.16,0.99,-0.05,0.14,-2.38,-0.77
-0.15,0.99,-0.05,0.35,-2.45,-0.7
-0.16,0.99,-0.05,0.14,-2.38,-0.84
-0.16,0.99,-0.05,0.07,-2.31,-0.77
-0.16,0.99,-0.05,0.28,-2.45,-0.84
-0.16,0.99,-0.05,0.07,-2.38,-0.63
-0.16,0.99,-0.05,0.14,-2.45,-0.7
-0.16,0.99,-0.05,0.07,-2.24,-0.91
-0.16,0.99,-0.05,0.07,-2.24,-0.77
-0.16,0.99,-0.05,0.21,-2.45,-0.84
-0.16,0.99,-0.05,0.14,-2.38,-0.77
-0.15,0.99,-0.05,0.28,-2.45,-0.91
-0.15,0.99,-0.05,0.28,-2.52,-0.84
-0.15,0.99,-0.05,0.35,-2.24,-0.84
-0.16,0.99,-0.05,-17.85,-2.24,-1.05
-0.16,0.99,-0.05,0.14,-2.38,-0.77
-0.16,0.99,-0.05,0.21,-2.52,-0.77
-0.16,0.99,-0.05,0.14,-2.38,-0.77
-0.16,0.99,-0.05,0.21,-2.52,-0.7
-0.16,0.99,-0.05,0.07,-2.31,-0.7
-0.16,0.99,-0.05,0.14,-2.52,-0.63
-0.16,0.99,-0.05,0.42,-2.52,-0.7
-0.16,0.99,-0.05,0.28,-2.45,-0.84
-0.16,0.99,-0.05,0.14,-2.31,-0.77
-0.16,0.99,-0.05,0.07,-2.31,-0.77
-0.16,0.99,-0.05,0.14,-2.31,-0.7
-0.16,0.99,-0.05,0,-2.03,-0.91
-0.16,0.99,-0.05,0.28,-2.38,-0.84
-0.16,0.99,-0.05,0.21,-2.52,-0.77
-0.16,0.99,-0.05,-0.07,-2.17,-0.91
-0.16,0.99,-0.05,-0.07,-2.24,-0.91
-0.16,0.99,-0.05,0,-2.17,-0.91
-0.16,0.99,-0.05,0.14,-2.38,-0.91
-0.15,0.99,-0.05,0.21,-2.45,-0.84
-0.16,0.99,-0.05,-17.78,-2.24,-0.91
-0.16,0.99,-0.05,0.56,-2.52,-0.63
-0.16,0.99,-0.05,0.07,-2.38,-0.84
-0.16,0.99,-0.05,0.28,-2.38,-0.77
-0.16,0.99,-0.05,0.14,-2.38,-0.91
-0.16,0.99,-0.05,0.21,-2.45,-0.77
-0.15,0.99,-0.05,0.14,-2.45,-0.77
-0.16,0.99,-0.05,0.35,-2.45,-0.7
-0.16,0.99,-0.05,-0.14,-2.24,-0.91
-0.15,0.99,-0.05,0.14,-2.31,-0.77
-0.16,0.99,-0.05,0.14,-2.38,-0.84
-0.16,0.99,-0.05,-0.07,-2.24,-0.91
-0.16,0.99,-0.05,0.35,-2.31,-0.77
-0.16,0.99,-0.05,0.21,-2.38,-0.77
-0.16,0.99,-0.05,0.07,-2.24,-0.98
-0.16,0.99,-0.05,-0.07,-2.31,-0.7
-0.16,0.99,-0.05,0.07,-2.38,-0.91
-0.16,0.99,-0.05,-0.14,-2.1,-0.91
-0.16,0.99,-0.05,-0.14,-2.24,-0.91
-0.16,0.99,-0.05,0.14,-2.38,-0.84
-0.16,0.99,-0.05,0,-2.38,-0.91
-0.16,0.99,-0.05,0.21,-2.52,-0.7
-0.15,0.99,-0.05,0,-2.38,-0.77
-0.16,0.99,-0.05,0.28,-2.38,-0.77
-0.16,0.99,-0.05,0,-2.66,-0.7
-0.16,0.99,-0.05,0.07,-2.24,-0.91
-0.16,0.99,-0.05,0.14,-2.38,-0.84
-0.15,0.99,-0.05,0.14,-2.45,-0.7
-0.16,0.99,-0.05,0.42,-2.31,-0.91
-0.15,0.99,-0.05,0.21,-2.38,-0.77
-0.16,0.99,-0.05,0.21,-2.45,-0.77
-0.16,0.99,-0.05,0.28,-2.45,-0.84
-0.16,0.99,-0.05,0.35,-2.45,-0.77
-0.16,0.99,-0.05,0.21,-2.31,-0.7
-0.16,0.99,-0.05,0.14,-2.45,-0.77
-0.16,0.99,-0.05,-0.07,-2.24,-0.91
-0.15,0.99,-0.05,-0.07,-2.31,-0.84
-0.15,0.99,-0.05,0.14,-2.38,-0.77
-0.16,0.99,-0.05,0.07,-2.31,-0.77
-0.16,0.99,-0.05,0,-2.24,-0.56
-0.16,0.99,-0.05,0,-2.17,-0.91
-0.16,0.99,-0.05,0.21,-2.24,-0.91
-0.16,0.99,-0.05,-0.14,-2.24,-0.98
-0.16,0.99,-0.05,0.14,-2.38,-0.77
-0.16,0.99,-0.05,0,-2.31,-0.91
-0.16,0.99,-0.05,-0.14,-2.17,-0.77
-0.16,0.99,-0.05,0.28,-2.38,-0.63
-0.16,0.99,-0.05,0.07,-2.31,-0.84
-0.16,0.99,-0.05,0,-2.31,-0.91
-0.16,0.99,-0.05,0.28,-2.38,-0.7
-0.16,0.99,-0.05,0.14,-2.38,-0.84
-0.16,0.99,-0.05,0.35,-2.31,-0.7
-0.16,0.99,-0.05,0.14,-2.38,-0.84
-0.16,0.99,-0.05,0,-2.24,-0.84
-0.15,0.99,-0.05,0.35,-2.38,-0.7
-0.16,0.99,-0.05,0.21,-2.31,-0.84
-0.16,0.99,-0.05,0.21,-2.38,-0.91
-0.16,0.99,-0.05,0.14,-2.45,-0.77
-0.16,0.99,-0.05,0.07,-2.31,-0.91
-0.16,0.99,-0.05,-0.14,-2.17,-0.98
-0.16,0.99,-0.05,0.07,-2.38,-0.77
-0.16,0.99,-0.05,0.21,-2.45,-0.77
-0.16,0.99,-0.05,0.07,-2.38,-0.7
-0.16,0.99,-0.05,-0.07,-2.31,-1.05
-0.16,0.99,-0.05,0.21,-2.52,-0.56
-0.16,0.99,-0.05,0.07,-2.38,-0.7
-0.15,0.99,-0.05,-0.21,-2.1,-1.05
-0.16,0.99,-0.05,0.14,-2.38,-0.91
-0.16,0.99,-0.05,0.21,-2.45,-0.84
-0.16,0.99,-0.05,0.14,-2.31,-0.98
-0.16,0.99,-0.05,0.07,-2.31,-0.84
-0.16,0.99,-0.05,0.21,-2.1,-0.98
-0.16,0.99,-0.05,0,-2.38,-0.7
-0.16,0.99,-0.05,0.21,-2.45,-0.84
-0.15,0.99,-0.05,0.35,-2.38,-0.7
-0.16,0.99,-0.05,0.28,-2.38,-0.84
-0.16,0.99,-0.05,0.35,-2.52,-0.77
-0.15,0.99,-0.05,0.28,-2.45,-0.77
-0.16,0.99,-0.05,0.14,-2.38,-0.7
-0.16,0.99,-0.05,-0.07,-2.24,-0.91
-0.16,0.99,-0.05,0.42,-2.45,-0.63
-0.16,0.99,-0.05,0.35,-2.45,-0.7
-0.16,0.99,-0.05,0.35,-2.52,-0.84
-0.16,0.99,-0.05,0.21,-2.52,-0.7
-0.16,0.99,-0.05,0.21,-2.17,-0.91
-0.16,0.99,-0.05,0.07,-2.31,-0.84
-0.16,0.99,-0.05,0.21,-2.45,-0.77
-0.15,0.99,-0.05,-0.07,-2.31,-0.91
-0.15,0.99,-0.05,0.21,-2.45,-0.77
-0.15,0.99,-0.05,0,-2.24,-0.77
-0.16,0.99,-0.05,0,-2.24,-1.05
-0.16,0.99,-0.05,0.28,-2.1,-0.98
-0.16,0.99,-0.05,-0.21,-2.24,-0.91
-0.16,0.99,-0.05,-0.28,-2.17,-0.98
-0.16,0.99,-0.05,-0.07,-2.24,-0.84
-0.16,0.99,-0.05,0.14,-2.52,-0.84
-0.15,0.99,-0.05,-0.07,-2.38,-1.12
-0.16,0.99,-0.05,0.07,-2.45,-0.7
-0.16,0.99,-0.05,0.07,-2.38,-0.84
-0.16,0.99,-0.05,0.35,-2.45,-0.7
-0.16,0.99,-0.05,0.21,-2.38,-0.84
-0.16,0.99,-0.05,0.35,-2.52,-0.77
-0.16,0.99,-0.05,0.21,-2.52,-0.7
-0.16,0.99,-0.05,0.49,-2.59,-0.56
-0.15,0.99,-0.05,0.28,-2.52,-0.7
-0.16,0.99,-0.05,0.14,-2.31,-0.7
-0.16,0.99,-0.05,0.21,-2.31,-0.91
-0.16,0.99,-0.05,0.42,-2.59,-0.7
-0.16,0.99,-0.05,0.07,-2.31,-0.91
-0.16,0.99,-0.05,0.28,-2.45,-0.77
-0.16,0.99,-0.05,0.07,-2.31,-0.77
-0.16,0.99,-0.05,0.14,-2.52,-0.77
-0.16,0.99,-0.05,0.21,-2.52,-0.7
-0.16,0.99,-0.05,0.07,-2.38,-0.77
-0.16,0.99,-0.05,0.07,-2.31,-0.77
-0.15,0.99,-0.05,0.14,-2.45,-0.84
-0.15,0.99,-0.05,0.07,-2.45,-0.98
-0.16,0.99,-0.05,0.07,-2.31,-0.7
-0.16,0.99,-0.05,0.14,-2.31,-0.84
-0.16,0.99,-0.05,0.14,-2.1,-0.84
-0.16,0.99,-0.05,0.21,-2.38,-0.84
-0.16,0.99,-0.05,0.14,-2.31,-0.77
-0.16,0.99,-0.05,0.14,-2.38,-0.84
-0.16,0.99,-0.05,0.14,-2.24,-0.77
-0.15,0.99,-0.05,0.14,-2.45,-0.84
-0.16,0.99,-0.05,0.21,-2.52,-0.7
-0.16,0.99,-0.05,-0.07,-2.24,-0.98
-0.16,0.99,-0.05,0.35,-2.45,-0.77
-0.16,0.99,-0.05,0.21,-2.31,-0.84
-0.16,0.99,-0.05,0.42,-2.52,-0.7
-0.15,0.99,-0.05,0.42,-2.52,-0.63
-0.15,0.99,-0.05,0.35,-2.31,-0.77
-0.16,0.99,-0.05,0.14,-2.38,-0.84
-0.16,0.99,-0.05,0.14,-2.31,-0.84
-0.16,0.99,-0.05,0.07,-2.24,-0.84
-0.16,0.99,-0.05,0.14,-2.31,-0.77
-0.16,0.99,-0.05,0.07,-2.38,-0.84
-0.16,0.99,-0.05,0,-2.24,-0.84
-0.16,0.99,-0.05,0,-2.31,-0.84
-0.16,0.99,-0.05,0.21,-2.38,-0.63
-0.16,0.99,-0.05,0.28,-2.45,-0.7
-0.16,0.99,-0.05,0.28,-2.45,-0.77
-0.15,0.99,-0.05,0.07,-2.38,-0.84
-0.16,0.99,-0.05,0.28,-2.45,-0.84
-0.16,0.99,-0.05,0.07,-2.38,-0.7
-0.16,0.99,-0.05,0.21,-2.24,-0.91
-0.16,0.99,-0.05,0.28,-2.38,-0.84
-0.16,0.99,-0.05,-0.07,-2.31,-0.91
-0.16,0.99,-0.05,0.35,-2.45,-0.7
-0.16,0.99,-0.05,0.14,-2.31,-0.98
-0.16,0.99,-0.05,0.14,-2.31,-0.84
-0.16,0.99,-0.05,0.14,-2.31,-0.84
-0.16,0.99,-0.05,0.42,-2.38,-0.7
-0.16,0.99,-0.05,0.63,-2.59,-0.56
-0.16,0.99,-0.05,0.28,-2.38,-0.7
-0.16,0.99,-0.05,0.28,-2.45,-0.77
-0.16,0.99,-0.05,0.21,-2.38,-0.84
-0.16,0.99,-0.05,0.07,-2.38,-1.05
-0.16,0.99,-0.05,0.49,-2.66,-0.49
-0.16,0.99,-0.05,0.14,-2.52,-0.63
-0.15,0.99,-0.05,0.21,-2.38,-0.77
-0.16,0.99,-0.05,0.21,-2.38,-0.7
-0.15,0.99,-0.05,0.07,-2.38,-0.91
-0.16,0.99,-0.05,0.28,-2.38,-0.77
-0.16,0.99,-0.05,0.14,-2.38,-0.77
-0.16,0.99,-0.05,0.07,-2.17,-0.91
-0.15,0.99,-0.05,0.21,-2.38,-0.84
-0.15,0.99,-0.05,0.14,-2.45,-0.84
-0.15,0.99,-0.05,0.21,-2.38,-0.7
-0.16,0.99,-0.05,0.21,-2.38,-0.77
-0.16,0.99,-0.05,0.14,-2.38,-0.84
-0.15,0.99,-0.05,0.28,-2.31,-0.91
-0.16,0.99,-0.05,0.14,-2.31,-0.91
-0.16,0.99,-0.05,0.21,-2.31,-0.91
-0.16,0.99,-0.05,0.35,-2.52,-0.77
-0.16,0.99,-0.05,0.35,-2.52,-0.77
-0.15,0.99,-0.05,-0.07,-2.38,-0.91
-0.16,0.99,-0.05,0.07,-2.45,-0.77
-0.16,0.99,-0.05,0.07,-2.31,-0.77
-0.16,0.99,-0.05,0.21,-2.24,-0.91
-0.15,0.99,-0.05,0.21,-2.38,-0.77
-0.16,0.99,-0.05,0.28,-2.45,-0.77
-0.15,0.99,-0.05,0.21,-2.38,-0.84
-0.16,0.99,-0.05,0.28,-2.45,-0.7
-0.16,0.99,-0.05,0.35,-2.45,-0.7
-0.15,0.99,-0.05,0.42,-2.31,-0.84
-0.16,0.99,-0.05,0.42,-2.38,-0.84
-0.16,0.99,-0.05,0.42,-2.52,-0.63
-0.15,0.99,-0.05,0.21,-2.38,-0.77
-0.16,0.99,-0.05,-0.14,-2.17,-0.91
-0.16,0.99,-0.05,0.21,-2.38,-0.7
-0.16,0.99,-0.05,0.07,-2.24,-0.84
-0.15,0.99,-0.05,0.14,-2.17,-0.91
-0.15,0.99,-0.05,0.14,-2.31,-0.77
-0.16,0.99,-0.05,-0.14,-2.1,-0.91
-0.15,0.99,-0.05,0.21,-2.45,-0.77
-0.16,0.99,-0.05,0.28,-2.52,-1.12
-0.16,0.99,-0.05,0.28,-2.45,-0.84
-0.16,0.99,-0.05,0,-2.31,-0.91
-0.15,0.99,-0.05,0.21,-2.31,-0.84
-0.16,0.99,-0.05,0.07,-2.38,-0.84
-0.16,0.99,-0.05,0.14,-2.24,-0.84
-0.15,0.99,-0.05,0.35,-2.52,-0.77
-0.15,0.99,-0.05,0.35,-2.38,-0.77
-0.16,0.99,-0.05,0.21,-2.52,-0.84
-0.16,0.99,-0.05,0.42,-2.31,-0.77
-0.15,0.99,-0.05,0.21,-2.31,-0.91
-0.16,0.99,-0.05,0.35,-2.52,-0.7
-0.16,0.99,-0.05,0.21,-2.31,-0.7
-0.15,0.99,-0.05,0.07,-2.38,-0.84
-0.16,0.99,-0.05,0,-2.31,-0.77
-0.16,0.99,-0.05,0.14,-2.38,-0.77
-0.16,0.99,-0.05,0.21,-2.45,-0.7
-0.16,0.99,-0.05,0.14,-2.38,-0.84
-0.16,0.99,-0.05,-0.21,-2.17,-0.98
-0.16,0.99,-0.05,-0.07,-2.38,-1.05
-0.16,0.99,-0.05,0,-2.31,-0.84
-0.16,0.99,-0.05,0,-2.38,-1.05
-0.16,0.99,-0.05,0.21,-2.31,-0.63
-0.15,0.99,-0.05,0.14,-2.31,-0.84
-0.15,0.99,-0.05,-0.28,-2.17,-0.91
-0.16,0.99,-0.05,0,-2.31,-0.91
-0.16,0.99,-0.05,0.07,-2.24,-0.84
-0.16,0.99,-0.05,0.28,-2.45,-0.77
-0.16,0.99,-0.05,0.42,-2.59,-0.7
-0.16,0.99,-0.05,0.14,-2.38,-0.91
-0.16,0.99,-0.05,0.21,-2.24,-0.84
-0.16,0.99,-0.05,0.07,-2.38,-0.77
-0.16,0.99,-0.05,-0.07,-2.38,-0.98
-0.16,0.99,-0.05,0.28,-2.38,-0.77
-0.16,0.99,-0.05,0.28,-2.38,-0.77
-0.16,0.99,-0.05,0.28,-2.52,-0.84
-0.16,0.99,-0.05,0.28,-2.45,-0.7
-0.16,0.99,-0.05,0.21,-2.45,-0.77
-0.15,0.99,-0.05,0.07,-2.38,-0.77
-0.16,0.99,-0.05,0.14,-2.31,-0.84
-0.16,0.99,-0.05,0,-2.24,-0.91
-0.16,0.99,-0.05,0.14,-2.31,-0.84
-0.16,0.99,-0.05,0,-2.24,-0.84
-0.16,0.99,-0.05,0.14,-2.52,-0.77
-0.16,0.99,-0.05,0.28,-2.45,-0.7
-0.16,0.99,-0.05,0.14,-2.38,-0.91
-0.16,0.99,-0.05,0.21,-2.38,-0.77
-0.16,0.99,-0.05,0.21,-2.45,-0.77
-0.16,0.99,-0.05,0.14,-2.52,-0.63
-0.16,0.99,-0.05,0.14,-2.45,-0.77
-0.15,0.99,-0.05,0,-2.38,-0.98
-0.15,0.99,-0.05,0.35,-2.45,-0.7
-0.16,0.99,-0.05,0.21,-2.31,-0.84
-0.16,0.99,-0.05,0.28,-2.31,-0.91
-0.16,0.99,-0.05,0,-2.24,-0.91
-0.16,0.99,-0.05,0.07,-2.38,-0.98
-0.16,0.99,-0.05,-0.21,-2.52,-0.77
-0.16,0.99,-0.05,-0.07,-2.24,-0.84
-0.15,0.99,-0.05,0.21,-2.38,-0.7
-0.16,0.99,-0.05,0.07,-2.45,-0.77
-0.16,0.99,-0.05,0.28,-2.52,-0.7
-0.16,0.99,-0.05,0.14,-2.45,-0.63
-0.16,0.99,-0.05,0.14,-2.59,-0.63
-0.15,0.99,-0.05,0.21,-2.45,-0.77
-0.16,0.99,-0.05,0.21,-2.38,-0.84
-0.16,0.99,-0.05,0.42,-2.45,-0.77
-0.16,0.99,-0.05,0.07,-2.38,-0.91
-0.16,0.99,-0.05,0.21,-2.45,-0.84
-0.16,0.99,-0.05,0.28,-2.38,-0.77
-0.15,0.99,-0.05,0.21,-2.45,-0.77
-0.15,0.99,-0.05,0.14,-2.24,-0.91
-0.16,0.99,-0.05,0.14,-2.31,-0.77
-0.16,0.99,-0.05,-0.07,-2.24,-0.84
-0.15,0.99,-0.05,0.14,-2.38,-0.77
-0.16,0.99,-0.05,0,-2.38,-0.77
-0.15,0.99,-0.05,0.21,-2.45,-0.77
-0.16,0.99,-0.05,0.07,-2.45,-0.77
-0.16,0.99,-0.05,0.14,-2.31,-0.84
-0.16,0.99,-0.05,0,-2.38,-0.98
-0.16,0.99,-0.05,0,-2.24,-0.98
-0.16,0.99,-0.05,0.28,-2.31,-0.7
-0.16,0.99,-0.05,0.07,-2.45,-0.91
-0.16,0.99,-0.05,0.28,-2.45,-0.77
-0.16,0.99,-0.05,0.07,-2.59,-0.77
-0.15,0.99,-0.05,-0.07,-2.24,-0.91
-0.16,0.99,-0.05,0.28,-2.59,-0.77
-0.16,0.99,-0.05,0.28,-2.52,-0.77
-0.16,0.99,-0.05,0.07,-2.38,-0.84
-0.16,0.99,-0.05,-0.14,-2.17,-0.77
-0.16,0.99,-0.05,0.28,-2.52,-0.63
-0.16,0.99,-0.05,0.42,-2.31,-0.7
-0.16,0.99,-0.05,0.28,-2.31,-0.77
-0.16,0.99,-0.05,0.28,-2.45,-0.77
-0.16,0.99,-0.05,0.28,-2.59,-0.7
-0.15,0.99,-0.05,0.07,-2.31,-0.91
-0.15,0.99,-0.05,0.07,-2.31,-0.77
-0.16,0.99,-0.05,0.21,-2.17,-0.91
-0.16,0.99,-0.05,-0.07,-2.1,-0.91
-0.16,0.99,-0.05,0.07,-2.38,-0.77
-0.16,0.99,-0.05,-0.14,-2.17,-0.98
-0.15,0.99,-0.05,0.28,-2.38,-0.7
-0.16,0.99,-0.05,0.21,-2.52,-0.84
-0.15,0.99,-0.05,0.21,-2.38,-0.91
-0.16,0.99,-0.05,0.21,-2.45,-0.7
-0.16,0.99,-0.05,0,-2.24,-0.84
-0.16,0.99,-0.05,0.42,-2.38,-0.7
-0.16,0.99,-0.05,0.14,-2.31,-0.84
-0.16,0.99,-0.05,0.28,-2.45,-0.84
-0.16,0.99,-0.05,0,-2.31,-0.98
-0.15,0.99,-0.05,0.14,-2.24,-0.91
-0.16,0.99,-0.05,0.14,-2.38,-0.77
-0.16,0.99,-0.05,0.07,-2.24,-0.91
-0.16,0.99,-0.05,0.14,-2.38,-0.7
-0.15,0.99,-0.05,0,-2.17,-0.91
-0.16,0.99,-0.05,0,-2.38,-0.84
-0.16,0.99,-0.05,0.07,-2.24,-0.7
-0.15,0.99,-0.05,0,-2.38,-0.84
-0.16,0.99,-0.05,0.14,-2.8,-0.56
-0.15,0.99,-0.05,0.28,-2.45,-0.7
-0.15,0.99,-0.05,0.14,-2.59,-0.77
-0.15,0.99,-0.05,0.14,-2.52,-0.77
-0.16,0.99,-0.05,0.07,-2.45,-0.98
-0.16,0.99,-0.05,0.14,-2.38,-0.98
-0.16,0.99,-0.05,0.21,-2.38,-0.84
-0.15,0.99,-0.05,0.28,-2.31,-0.7
-0.16,0.99,-0.05,0.49,-2.45,-0.7
-0.16,0.99,-0.05,0.14,-2.38,-0.84
-0.16,0.99,-0.05,0.07,-2.31,-0.84
-0.16,0.99,-0.05,0.35,-2.45,-0.84
-0.15,0.99,-0.05,0.35,-2.45,-0.63
-0.15,0.99,-0.05,0.21,-2.45,-0.63
-0.16,0.99,-0.05,0.14,-2.31,-0.77
-0.16,0.99,-0.05,0.14,-2.38,-0.77
-0.16,0.99,-0.05,-0.07,-2.31,-0.98
-0.16,0.99,-0.05,0.14,-2.38,-0.77
-0.16,0.99,-0.05,-0.07,-2.31,-0.91
-0.16,0.99,-0.05,0.21,-2.45,-0.77
-0.15,0.99,-0.05,0.07,-2.45,-0.91
-0.16,0.99,-0.05,-0.28,-2.31,-1.05
-0.16,0.99,-0.05,0.07,-2.31,-0.77
-0.16,0.99,-0.05,0.14,-2.38,-0.84
-0.16,0.99,-0.05,0.07,-2.38,-0.63
-0.16,0.99,-0.05,0.28,-2.59,-0.77
-0.16,0.99,-0.05,0.14,-2.66,-0.56
-0.16,0.99,-0.05,-17.64,-2.17,-0.98
-0.15,0.99,-0.05,0.07,-2.31,-0.84
-0.16,0.99,-0.05,0.21,-2.45,-0.77
-0.16,0.99,-0.05,0.21,-2.45,-0.91
-0.16,0.99,-0.05,0.14,-2.38,-0.91
-0.15,0.99,-0.05,-0.07,-2.24,-0.77
-0.16,0.99,-0.05,0.14,-2.17,-0.84
-0.15,0.99,-0.05,0.35,-2.52,-0.77
-0.16,0.99,-0.05,0.14,-2.38,-0.84
-0.16,0.99,-0.05,0.35,-2.52,-0.7
-0.15,0.99,-0.05,0.07,-2.52,-0.98
-0.15,0.99,-0.05,0.07,-2.45,-0.84
-0.16,0.99,-0.05,-0.07,-2.38,-0.7
-0.16,0.99,-0.05,0,-2.31,-0.77
-0.15,0.99,-0.05,0.21,-2.38,-0.84
-0.15,0.99,-0.05,0.07,-2.38,-0.91
-0.15,0.99,-0.05,0.21,-2.38,-0.84
-0.16,0.99,-0.05,0.21,-2.38,-0.84
-0.16,0.99,-0.05,0.28,-2.45,-1.05
-0.16,0.99,-0.05,0.28,-2.59,-0.7
-0.16,0.99,-0.05,0.35,-2.38,-0.77
-0.16,0.99,-0.05,0.07,-2.31,-0.77
-0.16,0.99,-0.05,0.14,-2.45,-0.84
-0.16,0.99,-0.05,0.14,-2.38,-0.77
-0.16,0.99,-0.05,0.07,-2.31,-0.84
-0.15,0.99,-0.05,0.42,-2.45,-0.7
-0.16,0.99,-0.05,0.49,-2.45,-0.7
-0.16,0.99,-0.05,0,-2.24,-0.91
-0.15,0.99,-0.05,-0.07,-2.24,-0.91
-0.15,0.99,-0.05,0.07,-2.31,-0.84
-0.16,0.99,-0.05,0.07,-2.38,-0.84
-0.16,0.99,-0.05,0.21,-2.45,-0.77
-0.16,0.99,-0.05,0.42,-2.38,-0.84
-0.15,0.99,-0.05,0.14,-2.17,-0.98
-0.16,0.99,-0.05,0.14,-2.38,-0.77
-0.16,0.99,-0.05,0.21,-2.59,-0.77
-0.16,0.99,-0.05,0.07,-2.31,-0.84
-0.16,0.99,-0.05,0,-2.38,-0.98
-0.15,0.99,-0.05,0.07,-2.38,-0.91
-0.16,0.99,-0.05,0.28,-2.38,-0.84
-0.15,0.99,-0.05,0.07,-2.31,-0.77
-0.15,0.99,-0.05,0.07,-2.31,-0.91
-0.16,0.99,-0.05,-0.07,-2.24,-0.91
-0.15,0.99,-0.05,0.07,-2.24,-0.91
-0.16,0.99,-0.05,0.21,-2.38,-0.84
-0.16,0.99,-0.05,0.14,-2.24,-0.98
-0.16,0.99,-0.05,0.07,-2.38,-0.7
-0.16,0.99,-0.05,0.35,-2.52,-0.77
-0.15,0.99,-0.05,0.14,-2.45,-0.7
-0.16,0.99,-0.05,0.07,-2.31,-0.84
-0.16,0.99,-0.05,0.14,-2.38,-0.84
-0.16,0.99,-0.05,0.28,-2.45,-0.7
-0.16,0.99,-0.05,0.42,-2.31,-0.77
-0.16,0.99,-0.05,0,-2.52,-0.84
-0.16,0.99,-0.05,0.07,-2.38,-0.84
-0.15,0.99,-0.05,0.07,-2.38,-0.84
-0.16,0.99,-0.05,0.28,-2.52,-0.84
-0.16,0.99,-0.05,0.21,-2.52,-0.91
-0.15,0.99,-0.05,0.35,-2.59,-0.7
-0.15,0.99,-0.05,0.42,-2.52,-0.77
-0.16,0.99,-0.05,0.21,-2.31,-0.84
-0.16,0.99,-0.05,0.28,-2.52,-0.7
-0.16,0.99,-0.05,0.28,-2.52,-0.77
-0.16,0.99,-0.05,0.14,-2.31,-0.84
-0.15,0.99,-0.05,0.21,-2.38,-0.91
-0.16,0.99,-0.05,0.28,-2.52,-0.84
-0.16,0.99,-0.05,0.28,-2.24,-0.91
-0.15,0.99,-0.05,17.85,-2.31,-0.84
-0.16,0.99,-0.05,-0.28,-2.24,-0.98
-0.16,0.99,-0.05,0.21,-2.38,-0.84
-0.16,0.99,-0.05,0.14,-2.52,-0.77
-0.16,0.99,-0.05,0,-2.31,-0.77
-0.16,0.99,-0.05,0.14,-2.45,-0.84
-0.16,0.99,-0.05,0.14,-2.31,-0.84
-0.15,0.99,-0.05,0,-2.31,-0.84
-0.16,0.99,-0.05,0.07,-2.31,-0.84
-0.16,0.99,-0.05,0.14,-2.45,-0.98
-0.16,0.99,-0.05,0.28,-2.38,-0.91
-0.16,0.99,-0.05,0.28,-2.52,-0.84
-0.15,0.99,-0.05,0.21,-2.45,-0.7
-0.16,0.99,-0.05,0.28,-2.31,-0.84
-0.16,0.99,-0.05,0.35,-2.38,-0.7
-0.16,0.99,-0.05,0,-2.31,-0.77
-0.16,0.99,-0.05,-0.07,-2.31,-0.91
-0.16,0.99,-0.05,0.35,-2.45,-0.98
-0.16,0.99,-0.05,0.21,-2.38,-0.77
-0.15,0.99,-0.05,0.42,-2.38,-0.7
-0.16,0.99,-0.05,0.14,-2.52,-0.63
-0.15,0.99,-0.05,-0.21,-2.31,-0.91
-0.16,0.99,-0.05,0.14,-2.38,-0.91
-0.16,0.99,-0.05,-0.21,-2.17,-0.91
-0.15,0.99,-0.05,0.07,-2.24,-0.91
-0.16,0.99,-0.05,0.28,-2.52,-0.91
-0.16,0.99,-0.05,0.14,-2.31,-0.91
-0.15,0.99,-0.05,0.07,-2.31,-0.77
-0.16,0.99,-0.05,0.07,-2.24,-0.84
-0.16,0.99,-0.05,0,-2.24,-0.91
-0.16,0.99,-0.05,0.21,-2.45,-0.84
-0.15,0.99,-0.05,0.21,-2.31,-0.7
-0.16,0.99,-0.05,0.21,-2.31,-0.84
-0.16,0.99,-0.05,0.21,-2.38,-0.77
-0.15,0.99,-0.05,0.21,-2.31,-0.63
-0.16,0.99,-0.05,0.35,-2.38,-0.98
-0.16,0.99,-0.05,0.35,-2.38,-0.84
-0.16,0.99,-0.05,0.35,-2.31,-0.91
-0.16,0.99,-0.05,0.28,-2.45,-0.77
-0.16,0.99,-0.05,0.14,-2.38,-0.84
-0.16,0.99,-0.05,0.14,-2.38,-0.91
-0.15,0.99,-0.05,0.14,-2.38,-0.98
-0.15,0.99,-0.05,0.35,-2.38,-0.91
-0.16,0.99,-0.05,0,-2.24,-0.84
-0.16,0.99,-0.05,0,-2.31,-0.77
-0.15,0.99,-0.05,-0.21,-2.17,-0.98
-0.15,0.99,-0.05,0.07,-2.24,-0.91
-0.16,0.99,-0.05,-0.07,-2.31,-0.91
-0.16,0.99,-0.05,-0.14,-2.17,-0.84
-0.16,0.99,-0.05,0.14,-2.38,-0.84
-0.16,0.99,-0.05,0.28,-2.24,-0.84
-0.16,0.99,-0.05,0.14,-2.31,-0.77
-0.16,0.99,-0.05,0.07,-2.38,-0.91
-0.16,0.99,-0.05,0.28,-2.38,-0.84
-0.16,0.99,-0.05,0.07,-2.31,-0.91
-0.15,0.99,-0.05,0.21,-2.38,-0.84
-0.16,0.99,-0.05,0,-2.24,-0.84
-0.16,0.99,-0.05,-0.07,-2.24,-0.84
-0.16,0.99,-0.05,0,-2.24,-0.84
-0.16,0.99,-0.05,0.21,-2.38,-0.91
-0.16,0.99,-0.05,0.07,-2.24,-0.77
-0.16,0.99,-0.05,0,-2.24,-0.84
-0.16,0.99,-0.05,0.42,-2.38,-0.7
-0.16,0.99,-0.05,0.21,-2.38,-0.7
-0.16,0.99,-0.05,0.07,-2.38,-0.91
-0.16,0.99,-0.05,0.42,-2.66,-0.7
-0.16,0.99,-0.05,0.21,-2.52,-0.7
-0.15,0.99,-0.05,0.28,-2.45,-0.84
-0.15,0.99,-0.05,-0.07,-2.38,-1.05
-0.16,0.99,-0.05,0.21,-2.59,-0.91
-0.16,0.99,-0.05,0.14,-2.24,-0.84
-0.16,0.99,-0.05,-0.07,-2.24,-0.91
-0.15,0.99,-0.05,0.07,-2.31,-0.84
-0.16,0.99,-0.05,0.14,-2.38,-0.77
-0.16,0.99,-0.05,0.07,-2.45,-0.77
-0.15,0.99,-0.05,0.21,-2.31,-0.84
-0.16,0.99,-0.05,0.07,-2.17,-0.84
-0.16,0.99,-0.05,0.14,-2.24,-0.84
-0.16,0.99,-0.05,0,-2.24,-0.91
-0.16,0.99,-0.05,0.07,-2.38,-0.98
-0.16,0.99,-0.05,0.14,-2.52,-0.77
-0.16,0.99,-0.05,-0.14,-2.45,-0.77
-0.16,0.99,-0.04,0.14,-2.38,-0.7
-0.15,0.99,-0.05,0.21,-2.38,-0.77
-0.16,0.99,-0.05,0.07,-2.24,-0.91
-0.16,0.99,-0.05,-0.07,-2.31,-0.91
-0.16,0.99,-0.05,0.28,-2.59,-0.84
-0.16,0.99,-0.05,0.07,-2.38,-0.98
-0.15,0.99,-0.05,0.21,-2.45,-0.91
-0.16,0.99,-0.05,0.21,-2.1,-0.98
-0.15,0.99,-0.05,0.21,-2.45,-0.77
-0.15,0.99,-0.05,0.07,-2.17,-0.91
-0.16,0.99,-0.05,0.35,-2.52,-0.7
-0.16,0.99,-0.05,0.07,-2.31,-0.84
-0.16,0.99,-0.05,0.14,-2.38,-0.98
-0.16,0.99,-0.05,0.07,-2.31,-0.91
-0.16,0.99,-0.05,0.07,-2.24,-0.91
-0.16,0.99,-0.05,0.07,-2.38,-0.77
-0.16,0.99,-0.05,0,-2.31,-0.84
-0.15,0.99,-0.05,0.14,-2.45,-0.84
-0.16,0.99,-0.05,0.28,-2.45,-0.77
-0.15,0.99,-0.05,0,-2.31,-0.77
-0.16,0.99,-0.05,0.07,-2.31,-0.7
-0.15,0.99,-0.05,0.14,-2.45,-0.77
-0.16,0.99,-0.05,0,-2.31,-0.91
-0.16,0.99,-0.05,0.49,-2.52,-0.7
-0.16,0.99,-0.05,0,-2.31,-0.84
-0.16,0.99,-0.05,0.14,-2.38,-0.91
-0.16,0.99,-0.05,0.14,-2.45,-0.84
-0.16,0.99,-0.05,0.07,-2.31,-0.91
-0.16,0.99,-0.05,0.14,-2.38,-0.77
-0.16,0.99,-0.05,0.28,-2.45,-0.63
-0.15,0.99,-0.05,0.14,-2.31,-0.84
-0.16,0.99,-0.05,0.14,-2.38,-0.84
-0.16,0.99,-0.05,0.21,-2.45,-0.91
-0.16,0.99,-0.05,0.07,-2.24,-0.7
-0.16,0.99,-0.05,0.28,-2.38,-0.84
-0.16,0.99,-0.05,0.07,-2.45,-0.77
-0.16,0.99,-0.05,0.14,-2.38,-0.91
-0.16,0.99,-0.05,0,-2.38,-0.84
-0.15,0.99,-0.05,-0.07,-2.24,-0.98
-0.15,0.99,-0.05,0.07,-2.38,-0.77
-0.16,0.99,-0.05,0.21,-2.45,-0.84
-0.16,0.99,-0.05,0,-2.38,-0.84
-0.16,0.99,-0.05,-0.07,-2.31,-0.91
-0.16,0.99,-0.05,0.07,-2.38,-0.84
-0.16,0.99,-0.05,-0.07,-2.24,-0.77
-0.16,0.99,-0.05,0.14,-2.38,-0.77
-0.16,0.99,-0.05,0.07,-2.31,-0.84
-0.15,0.99,-0.05,0.21,-2.38,-0.91
-0.16,0.99,-0.05,-0.07,-2.31,-0.7
-0.16,0.99,-0.05,0.07,-2.31,-0.84
-0.16,0.99,-0.05,0.28,-2.31,-0.84
-0.16,0.99,-0.05,0.21,-2.31,-0.84
-0.15,0.99,-0.05,0.14,-2.38,-0.84
-0.16,0.99,-0.05,0.42,-2.52,-0.7
-0.16,0.99,-0.05,0.07,-2.31,-0.91
-0.15,0.99,-0.05,0.35,-2.38,-0.77
-0.16,0.99,-0.05,0.14,-2.45,-0.77
-0.16,0.99,-0.05,0,-2.24,-0.84
-0.16,0.99,-0.05,0.07,-2.38,-0.84
-0.15,0.99,-0.05,0,-2.38,-0.91
-0.16,0.99,-0.05,0.28,-2.38,-0.77
-0.16,0.99,-0.05,0.07,-2.38,-0.7
-0.16,0.99,-0.05,-0.07,-2.24,-0.84
-0.16,0.99,-0.05,0.14,-2.52,-0.77
-0.15,0.99,-0.05,0.14,-2.38,-0.84
-0.16,0.99,-0.05,0.28,-2.52,-0.7
-0.16,0.99,-0.05,0.35,-2.52,-0.7
-0.15,0.99,-0.05,0.14,-2.38,-0.7
-0.16,0.99,-0.05,0.14,-2.38,-0.77
-0.16,0.99,-0.05,0.07,-2.24,-0.91
-0.16,0.99,-0.05,0.07,-2.31,-0.91
-0.16,0.99,-0.05,0.21,-2.45,-0.7
-0.16,0.99,-0.05,0.21,-2.38,-0.84
-0.16,0.99,-0.05,0.07,-2.31,-0.84
-0.15,0.99,-0.05,0,-2.45,-0.91
-0.16,0.99,-0.05,0.21,-2.31,-0.91
-0.16,0.99,-0.05,0.14,-2.31,-0.84
-0.16,0.99,-0.05,0.35,-2.45,-0.63
-0.16,0.99,-0.05,0.21,-2.45,-0.7
-0.16,0.99,-0.05,0.21,-2.52,-0.84
-0.16,0.99,-0.05,0.42,-2.66,-1.12
-0.16,0.99,-0.05,0.28,-2.52,-0.91
-0.16,0.99,-0.05,0.21,-2.38,-0.7
-0.15,0.99,-0.05,0.35,-2.45,-0.77
-0.15,0.99,-0.05,0.28,-2.31,-0.7
-0.16,0.99,-0.05,0.28,-2.38,-0.77
-0.16,0.99,-0.05,0.21,-2.45,-0.7
-0.16,0.99,-0.05,0.14,-2.45,-0.63
-0.16,0.99,-0.05,0.49,-2.45,-0.7
-0.16,0.99,-0.05,0.14,-2.31,-0.77
-0.16,0.99,-0.05,0.07,-2.38,-0.84
-0.15,0.99,-0.05,0.07,-2.31,-0.77
-0.16,0.99,-0.05,-0.07,-2.38,-0.84
-0.16,0.99,-0.05,0,-2.31,-0.77
-0.16,0.99,-0.05,0.35,-2.45,-0.63
-0.16,0.99,-0.05,-0.07,-2.31,-0.91
-0.15,0.99,-0.05,0,-2.31,-0.77
-0.16,0.99,-0.05,0.07,-2.24,-0.84
-0.16,0.99,-0.05,-0.07,-2.24,-0.98
-0.16,0.99,-0.05,0.21,-2.38,-0.77
-0.16,0.99,-0.05,0.14,-2.38,-0.77
-0.16,0.99,-0.05,0.28,-2.45,-0.7
-0.16,0.99,-0.05,0.14,-2.38,-0.84
-0.15,0.99,-0.05,0.28,-2.31,-0.84
-0.16,0.99,-0.05,0.21,-2.45,-0.63
-0.15,0.99,-0.05,0.21,-2.31,-0.91
-0.15,0.99,-0.05,0.14,-2.24,-0.84
-0.16,0.99,-0.05,0.28,-2.31,-0.84
-0.16,0.99,-0.05,0.35,-2.31,-0.77
-0.15,0.99,-0.05,-0.07,-2.24,-0.91
-0.16,0.99,-0.05,0.42,-2.52,-0.63
-0.16,0.99,-0.05,0.21,-2.38,-0.63
-0.16,0.99,-0.05,0.21,-2.45,-0.77
-0.16,0.99,-0.05,0.21,-2.38,-0.77
-0.16,0.99,-0.05,0.07,-2.31,-0.84
-0.16,0.99,-0.05,-0.07,-2.31,-0.84
-0.16,0.99,-0.05,0.14,-2.38,-0.7
-0.16,0.99,-0.05,0.07,-2.38,-0.84
-0.16,0.99,-0.05,0.14,-2.24,-0.77
-0.15,0.99,-0.05,0.28,-2.45,-0.77
-0.16,0.99,-0.05,0.07,-2.31,-0.91
-0.15,0.99,-0.05,0.35,-2.45,-0.77
-0.16,0.99,-0.05,0.21,-2.31,-0.84
-0.16,0.99,-0.05,0.35,-2.52,-0.7
-0.16,0.99,-0.05,0.21,-2.38,-0.84
-0.16,0.99,-0.05,0.14,-2.38,-0.84
-0.16,0.99,-0.05,0.07,-2.31,-0.7
-0.16,0.99,-0.05,0.21,-2.52,-0.63
-0.15,0.99,-0.05,0.35,-2.45,-0.77
-0.16,0.99,-0.05,0.14,-2.38,-0.77
-0.16,0.99,-0.05,0.07,-2.31,-0.91
-0.16,0.99,-0.05,0.14,-2.52,-1.05
-0.15,0.99,-0.05,0.14,-2.45,-0.7
-0.15,0.99,-0.05,0.35,-2.17,-0.98
-0.16,0.99,-0.05,0.21,-2.31,-0.98
-0.16,0.99,-0.05,0.35,-2.31,-0.7
-0.15,0.99,-0.05,0.21,-2.31,-0.84
-0.16,0.99,-0.05,0,-2.17,-0.84
-0.15,0.99,-0.05,0.14,-2.45,-0.77
-0.16,0.99,-0.05,0.21,-2.59,-0.63
-0.15,0.99,-0.05,0.21,-2.31,-0.91
-0.16,0.99,-0.05,0.35,-2.38,-0.77
-0.16,0.99,-0.05,0.49,-2.52,-0.63
-0.16,0.99,-0.05,0,-2.38,-0.98
-0.16,0.99,-0.05,0.21,-2.31,-0.91
-0.15,0.99,-0.05,0,-2.31,-0.77
-0.16,0.99,-0.05,0.28,-2.59,-0.77
-0.16,0.99,-0.05,0,-2.38,-0.84
-0.16,0.99,-0.05,0.35,-2.52,-0.7
-0.16,0.99,-0.05,0.14,-2.31,-0.77
-0.16,0.99,-0.05,0.35,-2.45,-0.7
-0.15,0.99,-0.05,0.35,-2.38,-0.63
-0.16,0.99,-0.05,0.28,-2.38,-0.7
-0.16,0.99,-0.05,0.14,-2.45,-0.7
-0.16,0.99,-0.05,-17.64,-2.31,-0.91
-0.16,0.99,-0.05,-0.21,-2.17,-0.98
-0.16,0.99,-0.05,0.21,-2.38,-0.77
-0.16,0.99,-0.05,0.21,-2.45,-0.77
-0.15,0.99,-0.05,0.28,-2.31,-0.98
-0.16,0.99,-0.05,0.14,-2.24,-0.7
-0.16,0.99,-0.05,0.21,-2.31,-0.84
-0.16,0.99,-0.05,0.14,-2.24,-0.77
-0.16,0.99,-0.05,0.21,-2.45,-0.77
-0.16,0.99,-0.05,0.35,-2.52,-0.7
-0.16,0.99,-0.05,0.14,-2.38,-0.84
-0.15,0.99,-0.05,0.07,-2.31,-0.84
-0.16,0.99,-0.05,0.14,-2.03,-0.91
-0.16,0.99,-0.05,0.28,-2.45,-0.77
-0.16,0.99,-0.05,0.07,-2.31,-0.84
-0.15,0.99,-0.05,0.21,-2.31,-0.77
-0.16,0.99,-0.05,0.21,-2.45,-0.77
-0.16,0.99,-0.05,0.28,-2.52,-0.63
-0.16,0.99,-0.05,0.28,-2.45,-0.7
-0.15,0.99,-0.05,0.28,-2.45,-0.77
-0.16,0.99,-0.05,0.21,-2.38,-0.77
-0.16,0.99,-0.05,-0.07,-2.17,-0.98
-0.15,0.99,-0.05,0,-2.31,-0.84
-0.15,0.99,-0.05,0.28,-2.38,-0.7
-0.15,0.99,-0.05,0.14,-2.38,-0.91
-0.16,0.99,-0.05,0.28,-2.38,-0.7
-0.16,0.99,-0.05,0.28,-2.45,-0.84
-0.16,0.99,-0.05,-0.07,-2.31,-0.98
-0.16,0.99,-0.05,0.21,-2.24,-0.77
-0.16,0.99,-0.05,0,-2.24,-0.98
-0.16,0.99,-0.05,0.21,-2.52,-0.84
-0.16,0.99,-0.05,0.07,-2.45,-0.98
-0.16,0.99,-0.05,0.07,-2.45,-0.7
-0.15,0.99,-0.05,0.14,-2.45,-0.7
-0.16,0.99,-0.05,0,-2.31,-0.91
-0.16,0.99,-0.05,0.28,-2.52,-0.7
-0.16,0.99,-0.05,0.14,-2.45,-0.77
-0.16,0.99,-0.05,0.07,-2.31,-0.91
-0.16,0.99,-0.05,0.21,-2.31,-0.98
-0.16,0.99,-0.05,0.07,-2.17,-0.98
-0.16,0.99,-0.05,0.21,-2.24,-0.98
-0.16,0.99,-0.05,-0.07,-2.31,-0.91
-0.16,0.99,-0.05,0.14,-2.38,-0.84
-0.16,0.99,-0.05,0.28,-2.38,-0.84
-0.16,0.99,-0.05,0.07,-2.38,-0.77
-0.16,0.99,-0.05,0.21,-2.52,-0.84
-0.16,0.99,-0.05,0.21,-2.52,-0.77
-0.15,0.99,-0.05,0.07,-2.45,-0.77
-0.16,0.99,-0.05,0,-2.31,-0.84
-0.15,0.99,-0.05,0.07,-2.31,-0.77
-0.16,0.99,-0.05,0.14,-2.38,-0.91
-0.16,0.99,-0.05,0.21,-2.38,-0.7
-0.16,0.99,-0.05,-0.14,-2.17,-0.84
-0.16,0.99,-0.05,0.21,-2.31,-0.77
-0.16,0.99,-0.05,0.07,-2.38,-0.84
-0.16,0.99,-0.05,0.14,-2.45,-0.77
-0.16,0.99,-0.05,-0.07,-2.38,-0.84
-0.16,0.99,-0.05,0.07,-2.38,-0.77
-0.16,0.99,-0.05,0.14,-2.45,-0.84
-0.16,0.99,-0.05,0.07,-2.45,-0.77
-0.16,0.99,-0.05,0.07,-2.52,-0.84
-0.16,0.99,-0.05,0.21,-2.38,-0.84
-0.15,0.99,-0.05,0.07,-2.38,-0.84
-0.15,0.99,-0.05,0.35,-2.52,-0.84
-0.16,0.99,-0.05,0,-2.31,-0.84
-0.16,0.99,-0.05,0.07,-2.31,-0.91
-0.15,0.99,-0.05,0.21,-2.17,-0.91
-0.16,0.99,-0.05,0.21,-2.03,-1.05
-0.16,0.99,-0.05,0.07,-2.1,-0.98
-0.16,0.99,-0.05,0.14,-2.31,-0.91
-0.16,0.99,-0.05,0.07,-2.38,-0.98
-0.16,0.99,-0.05,0.07,-2.45,-1.05
-0.16,0.99,-0.05,0.14,-2.59,-0.77
-0.15,0.99,-0.05,0.14,-2.52,-0.63
-0.16,0.99,-0.05,0.14,-2.38,-0.91
-0.16,0.99,-0.05,0,-2.45,-0.91
-0.16,0.99,-0.05,0.21,-2.52,-0.63
-0.16,0.99,-0.05,0.21,-2.45,-0.77
-0.16,0.99,-0.05,0.21,-2.38,-0.7
-0.16,0.99,-0.05,0.21,-2.45,-0.84
-0.16,0.99,-0.05,0.28,-2.17,-0.98
-0.16,0.99,-0.05,-0.07,-2.1,-0.98
-0.16,0.99,-0.05,0.28,-2.38,-0.77
-0.16,0.99,-0.05,-0.14,-2.17,-0.98
-0.16,0.99,-0.05,0.14,-2.45,-0.7
-0.16,0.99,-0.05,0.28,-2.45,-0.98
-0.16,0.99,-0.05,0.21,-2.31,-0.84
-0.16,0.99,-0.05,0.14,-2.24,-0.91
-0.16,0.99,-0.05,0.21,-2.38,-0.7
-0.16,0.99,-0.05,-0.07,-2.24,-0.84
-0.16,0.99,-0.05,0.14,-2.52,-0.84
-0.16,0.99,-0.05,0.07,-2.38,-0.7
-0.16,0.99,-0.05,0.07,-2.38,-0.77
-0.15,0.99,-0.05,0.07,-2.31,-0.91
-0.16,0.99,-0.05,0.07,-2.38,-0.77
-0.16,0.99,-0.05,0.07,-2.38,-0.84
-0.15,0.99,-0.05,0,-2.38,-0.91
-0.16,0.99,-0.05,0.14,-2.52,-0.84
-0.16,0.99,-0.05,0,-2.31,-0.77
-0.16,0.99,-0.05,0.07,-2.31,-0.98
-0.16,0.99,-0.05,0.07,-2.38,-0.91
-0.16,0.99,-0.05,0.35,-2.52,-0.77
-0.16,0.99,-0.05,0.28,-2.38,-0.7
-0.16,0.99,-0.05,0.21,-2.38,-0.77
-0.16,0.99,-0.05,0.14,-2.38,-0.77
-0.16,0.99,-0.05,0.07,-2.38,-0.91
-0.16,0.99,-0.05,0.07,-2.31,-0.98
-0.16,0.99,-0.05,0.35,-2.52,-0.63
-0.16,0.99,-0.05,0.28,-2.38,-0.7
-0.16,0.99,-0.05,0.21,-2.38,-0.77
-0.16,0.99,-0.05,-0.07,-2.31,-0.91
-0.16,0.99,-0.05,0.21,-2.31,-0.84
-0.16,0.99,-0.05,0.14,-2.38,-0.63
-0.16,0.99,-0.05,0,-2.38,-0.63
-0.16,0.99,-0.05,0.14,-2.38,-0.84
-0.16,0.99,-0.05,0.21,-2.45,-0.77
-0.16,0.99,-0.05,-0.21,-2.24,-0.91
-0.15,0.99,-0.05,0.28,-2.45,-0.77
-0.16,0.99,-0.05,0.14,-2.45,-0.91
-0.16,0.99,-0.05,0.14,-2.31,-0.7
-0.15,0.99,-0.05,0,-2.45,-0.77
-0.15,0.99,-0.05,-17.78,-2.24,-0.84
-0.16,0.99,-0.05,0.07,-2.31,-0.84
-0.16,0.99,-0.05,0.42,-2.59,-0.63
-0.16,0.99,-0.05,0.14,-2.38,-0.84
-0.16,0.99,-0.05,0.28,-2.52,-0.98
-0.16,0.99,-0.05,0.21,-2.24,-0.84
-0.16,0.99,-0.05,0.35,-2.24,-0.84
-0.16,0.99,-0.05,0.07,-2.31,-0.84
-0.16,0.99,-0.05,0.07,-2.38,-0.84
-0.16,0.99,-0.05,0.28,-2.66,-0.7
-0.16,0.99,-0.05,0.21,-2.38,-0.84
-0.16,0.99,-0.05,0.28,-2.31,-0.63
-0.16,0.99,-0.05,0.49,-2.45,-0.63
-0.16,0.99,-0.05,0.21,-2.24,-0.77
-0.16,0.99,-0.05,0.14,-2.31,-0.84
-0.15,0.99,-0.05,0.28,-2.45,-0.7
-0.16,0.99,-0.05,0.35,-2.38,-0.77
-0.16,0.99,-0.05,0.35,-2.38,-0.84
-0.16,0.99,-0.05,0.21,-2.38,-0.98
-0.16,0.99,-0.05,0.35,-2.17,-0.91
-0.15,0.99,-0.05,0.21,-2.31,-0.84
-0.16,0.99,-0.05,0.21,-2.38,-0.84
-0.16,0.99,-0.05,0.28,-2.45,-0.77
-0.16,0.99,-0.05,0.14,-2.52,-0.84
-0.16,0.99,-0.05,0.21,-2.66,-0.77
-0.16,0.99,-0.05,0.07,-2.45,-0.77
-0.16,0.99,-0.05,0.14,-2.45,-0.77
-0.16,0.99,-0.05,0.28,-2.52,-0.7
-0.16,0.99,-0.05,0,-2.31,-0.77
-0.16,0.99,-0.05,0.14,-2.31,-0.91
-0.16,0.99,-0.05,0.28,-2.38,-0.63
-0.16,0.99,-0.05,0.35,-2.24,-0.77
-0.16,0.99,-0.05,0.21,-2.17,-0.91
-0.16,0.99,-0.05,0.35,-2.52,-0.63
-0.15,0.99,-0.05,0.21,-2.31,-0.84
-0.16,0.99,-0.05,0.07,-2.24,-0.91
-0.16,0.99,-0.05,0.21,-2.31,-0.84
-0.16,0.99,-0.05,0.14,-2.38,-0.84
-0.16,0.99,-0.05,0.21,-2.31,-0.91
-0.16,0.99,-0.05,0.07,-2.45,-0.77
-0.16,0.99,-0.05,17.85,-2.31,-0.84
-0.16,0.99,-0.05,0.28,-2.45,-0.7
-0.16,0.99,-0.05,-0.14,-2.31,-0.84
-0.16,0.99,-0.05,-0.07,-2.24,-0.77
-0.15,0.99,-0.05,0.07,-2.24,-0.91
-0.16,0.99,-0.05,0.21,-2.38,-0.63
-0.16,0.99,-0.05,0.42,-2.1,-0.98
-0.15,0.99,-0.05,0.14,-2.38,-0.84
-0.16,0.99,-0.05,0.35,-2.45,-0.77
-0.16,0.99,-0.05,0.35,-2.59,-0.7
-0.16,0.99,-0.05,0.35,-2.45,-0.77
-0.16,0.99,-0.05,0.07,-2.31,-0.7
-0.16,0.99,-0.05,0.14,-2.31,-0.91
-0.16,0.99,-0.05,0.28,-2.52,-0.84
-0.16,0.99,-0.05,0,-2.31,-0.91
-0.16,0.99,-0.05,0.28,-2.38,-0.77
-0.16,0.99,-0.05,0.07,-2.31,-0.84
-0.16,0.99,-0.05,0.28,-2.45,-0.7
-0.16,0.99,-0.05,0.21,-2.38,-0.84
-0.16,0.99,-0.05,0.14,-2.24,-0.77
-0.16,0.99,-0.05,0.21,-2.24,-0.91
-0.16,0.99,-0.05,0.42,-2.52,-0.7
-0.16,0.99,-0.05,0.21,-2.24,-0.84
-0.16,0.99,-0.05,0.14,-2.38,-0.91
-0.16,0.99,-0.05,0.14,-2.38,-0.84
-0.16,0.99,-0.05,0.21,-2.38,-0.63
-0.16,0.99,-0.05,0.07,-2.31,-0.7
-0.16,0.99,-0.05,0.21,-2.38,-0.63
-0.16,0.99,-0.05,0.42,-2.52,-0.63
-0.16,0.99,-0.05,-0.07,-2.24,-0.91
-0.16,0.99,-0.05,0.14,-2.38,-0.77
-0.16,0.99,-0.05,0.21,-2.38,-0.77
-0.16,0.99,-0.05,0.14,-2.38,-0.77
-0.16,0.99,-0.05,0.21,-2.24,-0.91
-0.16,0.99,-0.05,0.42,-2.52,-0.63
-0.16,0.99,-0.05,0.14,-2.24,-0.77
-0.16,0.99,-0.05,0.28,-2.38,-0.77
-0.16,0.99,-0.05,0.28,-2.38,-0.7
-0.16,0.99,-0.05,0.14,-2.38,-0.91
-0.16,0.99,-0.05,0.21,-2.38,-0.91
-0.16,0.99,-0.05,0.14,-2.38,-0.84
-0.16,0.99,-0.05,0.21,-2.45,-0.77
-0.16,0.99,-0.05,-0.14,-2.17,-0.91
-0.15,0.99,-0.05,0.14,-2.31,-0.84
-0.15,0.99,-0.05,0.21,-2.31,-0.77
-0.15,0.99,-0.05,0.14,-2.38,-0.84
-0.15,0.99,-0.05,0.35,-2.45,-0.63
-0.15,0.99,-0.05,0.14,-2.38,-0.77
-0.16,0.99,-0.05,0.21,-2.38,-0.77
-0.16,0.99,-0.05,0.14,-2.38,-0.84
-0.15,0.99,-0.05,0.14,-2.17,-0.84
-0.16,0.99,-0.05,0,-2.31,-0.91
-0.16,0.99,-0.05,0.07,-2.24,-0.91
-0.16,0.99,-0.05,0.07,-2.45,-0.77
-0.16,0.99,-0.05,0.35,-2.59,-0.77
-0.16,0.99,-0.05,-0.14,-2.38,-0.84
-0.15,0.99,-0.05,0.07,-2.45,-0.7
-0.15,0.99,-0.05,0.21,-2.52,-1.05
-0.16,0.99,-0.05,0.28,-2.59,-0.91
-0.16,0.99,-0.05,0.07,-2.45,-0.77
-0.15,0.99,-0.05,0.07,-2.52,-0.63
-0.16,0.99,-0.05,0.35,-2.38,-0.77
-0.16,0.99,-0.05,0.07,-2.24,-0.84
-0.15,0.99,-0.05,0.21,-2.17,-1.05
-0.16,0.99,-0.05,0.14,-2.31,-0.91
-0.15,0.99,-0.05,0.35,-2.45,-0.63
-0.16,0.99,-0.05,0.07,-2.31,-0.7
-0.16,0.99,-0.05,-0.14,-2.24,-0.91
-0.16,0.99,-0.05,0.07,-2.38,-0.98
-0.15,0.99,-0.05,0.07,-2.45,-0.84
-0.16,0.99,-0.05,0.14,-2.38,-0.77
-0.16,0.99,-0.05,0.28,-2.38,-0.7
-0.16,0.99,-0.05,0.07,-2.17,-0.77
-0.16,0.99,-0.05,0.07,-2.38,-0.84
-0.16,0.99,-0.05,0.07,-2.31,-0.84
-0.15,0.99,-0.05,0.21,-2.31,-1.05
-0.15,0.99,-0.05,0.49,-2.31,-0.7
-0.16,0.99,-0.05,0.42,-2.45,-0.77
-0.16,0.99,-0.05,0,-2.31,-0.84
-0.16,0.99,-0.05,0.21,-2.45,-0.84
-0.16,0.99,-0.05,0.35,-2.59,-0.77
-0.16,0.99,-0.05,0.14,-2.45,-0.84
-0.15,0.99,-0.05,0.07,-2.38,-0.91
-0.15,0.99,-0.05,-0.07,-2.45,-0.84
-0.15,0.99,-0.05,0.14,-2.1,-1.05
-0.16,0.99,-0.05,0.35,-2.52,-0.7
-0.16,0.99,-0.05,0.14,-2.31,-0.77
-0.16,0.99,-0.05,0.21,-2.31,-0.77
-0.16,0.99,-0.05,0.14,-2.31,-1.05
-0.16,0.99,-0.05,0.21,-2.45,-0.7
-0.16,0.99,-0.05,-0.14,-2.1,-1.05
-0.15,0.99,-0.05,0.21,-2.38,-0.7
-0.16,0.99,-0.05,0.14,-2.38,-0.77
-0.16,0.99,-0.05,0.21,-2.38,-0.77
-0.16,0.99,-0.05,0.21,-2.45,-0.84
-0.16,0.99,-0.05,0,-2.31,-0.77
-0.16,0.99,-0.05,0.28,-2.45,-0.63
-0.15,0.99,-0.05,-0.07,-2.45,-0.77
-0.16,0.99,-0.05,0.21,-2.31,-0.77
-0.16,0.99,-0.05,0.28,-2.38,-0.7
-0.16,0.99,-0.05,0,-2.24,-0.98
-0.16,0.99,-0.05,0.21,-2.38,-0.7
-0.16,0.99,-0.05,0.21,-2.45,-0.84
-0.16,0.99,-0.05,0.07,-2.17,-0.84
-0.16,0.99,-0.05,0.21,-2.31,-0.84
-0.16,0.99,-0.05,0.21,-2.45,-0.77
-0.16,0.99,-0.05,0.14,-2.38,-0.84
-0.16,0.99,-0.05,0.42,-2.66,-0.63
-0.16,0.99,-0.05,0.14,-2.45,-0.84
-0.16,0.99,-0.05,0.28,-2.45,-0.7
-0.16,0.99,-0.05,0.14,-2.66,-0.56
-0.16,0.99,-0.05,0.07,-2.59,-0.63
-0.16,0.99,-0.05,0.14,-2.38,-0.84
-0.16,0.99,-0.05,0,-2.31,-0.91
-0.15,0.99,-0.05,0.14,-2.38,-0.77
-0.16,0.99,-0.05,0.07,-2.45,-0.63
-0.15,0.99,-0.05,0.07,-2.31,-0.77
-0.15,0.99,-0.05,0.21,-2.31,-0.84
-0.15,0.99,-0.05,0.35,-2.45,-0.7
-0.16,0.99,-0.05,0.21,-2.38,-0.77
-0.15,0.99,-0.05,0.14,-2.31,-0.91
-0.15,0.99,-0.05,0.28,-2.24,-0.77
-0.16,0.99,-0.05,0.28,-2.38,-0.84
-0.16,0.99,-0.05,0,-2.45,-0.77
-0.16,0.99,-0.05,0.07,-2.52,-0.77
-0.16,0.99,-0.05,0.28,-2.59,-0.7
-0.15,0.99,-0.05,0.35,-2.52,-0.7
-0.16,0.99,-0.05,0.07,-2.52,-0.84
-0.15,0.99,-0.05,-0.07,-2.24,-0.91
-0.16,0.99,-0.05,0.14,-2.45,-0.91
-0.16,0.99,-0.05,0.21,-2.52,-0.7
-0.16,0.99,-0.05,0.07,-2.24,-0.91
-0.16,0.99,-0.05,0,-2.24,-0.84
-0.15,0.99,-0.05,0.07,-2.24,-0.91
-0.15,0.99,-0.05,0.35,-2.38,-0.77
-0.16,0.99,-0.05,0.14,-2.31,-0.84
-0.16,0.99,-0.05,0.07,-2.24,-0.63
-0.16,0.99,-0.05,0,-2.38,-0.77
-0.16,0.99,-0.05,0.07,-2.52,-0.7
-0.16,0.99,-0.05,0,-2.31,-0.98
-0.16,0.99,-0.05,0.21,-2.38,-0.84
-0.16,0.99,-0.05,0,-2.38,-0.91
-0.16,0.99,-0.05,0.21,-2.52,-0.84
-0.15,0.99,-0.05,0,-2.45,-0.77
-0.15,0.99,-0.05,0.21,-2.52,-0.7
-0.15,0.99,-0.05,-0.35,-2.1,-0.98
-0.16,0.99,-0.05,0.07,-2.31,-0.91
-0.16,0.99,-0.05,0,-2.31,-0.84
-0.16,0.99,-0.05,0.28,-2.52,-0.91
-0.16,0.99,-0.05,0.21,-2.45,-0.84
-0.15,0.99,-0.05,0.07,-2.24,-0.84
-0.16,0.99,-0.05,0.35,-2.24,-0.84
-0.16,0.99,-0.05,0.28,-2.45,-0.7
-0.16,0.99,-0.05,0,-2.38,-0.91
-0.16,0.99,-0.05,0,-2.38,-0.84
-0.15,0.99,-0.05,0.14,-2.38,-0.77
-0.15,0.99,-0.05,0.07,-2.31,-0.77
-0.16,0.99,-0.05,0.07,-2.17,-0.91
-0.16,0.99,-0.05,0,-2.31,-0.77
-0.15,0.99,-0.05,0.14,-2.31,-0.84
-0.16,0.99,-0.05,0.21,-2.52,-0.84
-0.15,0.99,-0.05,-0.07,-2.17,-0.98
-0.15,0.99,-0.05,0.07,-2.31,-0.91
-0.16,0.99,-0.05,0.14,-2.38,-0.77
-0.16,0.99,-0.05,0.42,-2.73,-0.49
-0.16,0.99,-0.05,0.07,-2.45,-0.84
-0.16,0.99,-0.05,0.35,-2.45,-0.84
-0.16,0.99,-0.05,0.28,-2.38,-0.77
-0.16,0.99,-0.05,0.07,-2.31,-0.77
-0.16,0.99,-0.05,0,-2.24,-0.98
-0.16,0.99,-0.05,0.07,-2.24,-0.84
-0.16,0.99,-0.05,-0.07,-2.38,-0.84
-0.16,0.99,-0.05,0.28,-2.38,-0.7
-0.16,0.99,-0.05,0.07,-2.45,-0.84
-0.16,0.99,-0.05,0.21,-2.31,-0.77
-0.15,0.99,-0.05,0.21,-2.38,-0.42
-0.15,0.99,-0.05,0.28,-2.24,-0.77
-0.16,0.99,-0.05,0.28,-2.38,-0.7
-0.16,0.99,-0.05,0.28,-2.31,-0.91
-0.16,0.99,-0.05,0.21,-2.24,-0.84
-0.16,0.99,-0.05,0.14,-2.31,-0.91
-0.16,0.99,-0.05,0.14,-2.31,-0.98
-0.16,0.99,-0.05,0.14,-2.45,-0.98
-0.16,0.99,-0.05,-0.14,-2.17,-0.77
-0.16,0.99,-0.05,0.07,-2.24,-0.98
-0.16,0.99,-0.05,0,-2.31,-0.77
-0.16,0.99,-0.05,0,-2.31,-0.84
-0.16,0.99,-0.05,0.14,-2.38,-0.84
-0.16,0.99,-0.05,0.07,-2.31,-0.84
-0.16,0.99,-0.05,0.07,-2.38,-0.84
-0.16,0.99,-0.05,0.07,-2.52,-0.63
-0.16,0.99,-0.05,0.14,-2.8,-0.49
-0.16,0.99,-0.05,-0.07,-2.38,-0.91
-0.16,0.99,-0.05,0,-2.45,-0.84
-0.15,0.99,-0.05,0,-2.45,-0.91
-0.16,0.99,-0.05,0.21,-2.52,-0.84
-0.16,0.99,-0.05,0,-2.31,-0.63
-0.16,0.99,-0.05,0.14,-2.52,-0.7
-0.16,0.99,-0.05,0.14,-2.38,-0.84
-0.16,0.99,-0.05,0.28,-2.45,-0.77
-0.16,0.99,-0.05,0.21,-2.38,-0.77
-0.16,0.99,-0.05,0.21,-2.38,-0.84
-0.16,0.99,-0.05,0.14,-2.31,-0.84
-0.16,0.99,-0.05,0.42,-2.52,-0.7
-0.15,0.99,-0.05,0.14,-2.38,-0.77
-0.16,0.99,-0.05,0.35,-2.38,-0.77
-0.16,0.99,-0.05,0.35,-2.45,-0.7
-0.15,0.99,-0.05,0.21,-2.45,-0.77
-0.15,0.99,-0.05,0.21,-2.45,-0.91
-0.16,0.99,-0.05,0.07,-2.38,-0.91
-0.16,0.99,-0.05,0.14,-2.38,-0.77
-0.16,0.99,-0.05,0.21,-2.45,-0.84
-0.16,0.99,-0.05,0,-2.45,-0.84
-0.16,0.99,-0.05,0.07,-2.38,-0.77
-0.15,0.99,-0.05,0.07,-2.38,-0.84
-0.16,0.99,-0.05,0.14,-2.45,-0.84
-0.16,0.99,-0.05,0.14,-2.38,-0.77
-0.16,0.99,-0.05,0.21,-2.59,-0.7
-0.16,0.99,-0.05,0.35,-2.24,-0.91
-0.15,0.99,-0.05,0,-2.17,-0.98
-0.16,0.99,-0.05,0.14,-2.45,-0.77
-0.15,0.99,-0.05,0,-2.1,-0.91
-0.16,0.99,-0.05,0.35,-2.52,-0.77
-0.15,0.99,-0.05,0.21,-2.45,-0.77
-0.16,0.99,-0.05,0.35,-2.52,-0.77
-0.15,0.99,-0.05,0.21,-2.24,-0.91
-0.16,0.99,-0.05,0.14,-2.31,-0.91
-0.16,0.99,-0.05,0.21,-2.31,-0.91
-0.16,0.99,-0.05,0.07,-2.31,-0.91
-0.15,0.99,-0.05,0.14,-2.38,-0.84
-0.16,0.99,-0.05,0.07,-2.38,-0.77
-0.16,0.99,-0.05,0.14,-2.24,-0.84
-0.16,0.99,-0.05,0.14,-2.38,-0.77
-0.16,0.99,-0.05,-0.14,-2.24,-1.05
-0.16,0.99,-0.05,0.35,-2.45,-0.7
-0.16,0.99,-0.05,0.14,-2.31,-0.7
-0.16,0.99,-0.05,0.07,-2.38,-0.7
-0.16,0.99,-0.05,0,-2.45,-0.84
-0.16,0.99,-0.05,0.42,-2.31,-0.84
-0.16,0.99,-0.05,0.28,-2.45,-0.7
-0.16,0.99,-0.05,0.07,-2.31,-0.77
-0.16,0.99,-0.05,0.14,-2.38,-0.77
-0.16,0.99,-0.05,0.21,-2.38,-0.91
-0.16,0.99,-0.05,0,-2.38,-0.7
-0.16,0.99,-0.05,0.21,-2.24,-1.05
-0.16,0.99,-0.05,0.14,-2.38,-0.84
-0.16,0.99,-0.05,0.28,-2.45,-0.7
-0.16,0.99,-0.05,0.14,-2.38,-0.84
-0.16,0.99,-0.05,0,-2.24,-0.84
-0.16,0.99,-0.05,0,-2.31,-0.7
-0.16,0.99,-0.05,0.28,-2.45,-0.7
-0.16,0.99,-0.05,0,-2.17,-0.84
-0.16,0.99,-0.05,0.07,-2.38,-0.84
-0.15,0.99,-0.05,0,-2.31,-0.84
-0.15,0.99,-0.05,0.35,-2.38,-0.7
-0.16,0.99,-0.05,-0.07,-2.17,-0.7
-0.15,0.99,-0.05,0.21,-2.24,-0.84
-0.15,0.99,-0.05,0.28,-2.24,-0.77
-0.16,0.99,-0.05,0.14,-2.38,-0.98
-0.16,0.99,-0.05,0.14,-2.38,-0.84
-0.15,0.99,-0.05,0.07,-2.45,-0.91
-0.16,0.99,-0.05,0.28,-2.59,-0.7
-0.15,0.99,-0.05,0.14,-2.52,-0.91
-0.16,0.99,-0.05,0,-2.31,-0.63
-0.16,0.99,-0.05,0,-2.24,-1.05
-0.16,0.99,-0.05,0.21,-2.52,-0.63
-0.16,0.99,-0.05,0.07,-2.38,-0.84
-0.16,0.99,-0.05,0.35,-2.45,-0.77
-0.15,0.99,-0.05,-0.07,-2.38,-0.77
-0.15,0.99,-0.05,0.28,-2.38,-0.63
-0.16,0.99,-0.05,0.07,-2.31,-0.77
-0.16,0.99,-0.05,0.21,-2.45,-0.63
-0.16,0.99,-0.05,-0.14,-2.31,-0.98
-0.16,0.99,-0.05,0.21,-2.38,-0.84
-0.16,0.99,-0.05,0.28,-2.38,-0.77
-0.16,0.99,-0.05,0.07,-2.24,-0.77
-0.16,0.99,-0.05,0.21,-2.38,-0.84
-0.16,0.99,-0.05,0.14,-2.38,-0.84
-0.16,0.99,-0.05,0.21,-2.45,-0.91
-0.16,0.99,-0.05,0.07,-2.38,-0.84
-0.16,0.99,-0.05,0.14,-2.45,-0.7
-0.16,0.99,-0.05,0.14,-2.45,-0.63
-0.15,0.99,-0.05,0.07,-2.24,-0.84
-0.16,0.99,-0.05,0.14,-2.31,-0.7
-0.16,0.99,-0.05,0.21,-2.24,-0.98
-0.16,0.99,-0.05,0.21,-2.31,-0.84
-0.16,0.99,-0.05,0.49,-2.45,-0.7
-0.16,0.99,-0.05,0.14,-2.45,-0.77
-0.16,0.99,-0.05,0.21,-2.38,-0.84
-0.16,0.99,-0.05,0.35,-2.59,-0.98
-0.16,0.99,-0.05,0.35,-2.59,-0.7
-0.16,0.99,-0.05,0.14,-2.17,-0.98
-0.16,0.99,-0.05,0.14,-2.45,-0.77
-0.16,0.99,-0.05,-0.14,-2.24,-0.98
-0.15,0.99,-0.05,0.14,-2.31,-0.77
-0.15,0.99,-0.05,0.35,-2.45,-0.7
-0.16,0.99,-0.05,0.28,-2.38,-0.84
-0.15,0.99,-0.05,0.14,-2.24,-0.84
-0.16,0.99,-0.05,0.07,-2.17,-0.91
-0.16,0.99,-0.05,0.07,-2.24,-0.84
-0.16,0.99,-0.05,0.14,-2.31,-0.84
-0.16,0.99,-0.05,0.14,-2.45,-0.84
-0.16,0.99,-0.05,0.07,-2.45,-1.05
-0.16,0.99,-0.05,0.14,-2.45,-0.77
-0.16,0.99,-0.05,0.21,-2.38,-0.77
-0.16,0.99,-0.05,0.14,-2.73,-0.56
-0.16,0.99,-0.05,0.14,-2.45,-0.84
-0.16,0.99,-0.05,0.14,-2.38,-0.84
-0.16,0.99,-0.05,0.07,-2.24,-0.91
-0.15,0.99,-0.05,0.28,-2.45,-0.7
-0.16,0.99,-0.05,0.28,-2.38,-0.63
-0.15,0.99,-0.05,0.21,-2.24,-0.91
-0.15,0.99,-0.05,0.21,-2.45,-0.77
-0.16,0.99,-0.05,0.07,-2.31,-0.91
-0.16,0.99,-0.05,0,-2.31,-0.84
-0.16,0.99,-0.05,0.21,-2.38,-0.77
-0.16,0.99,-0.05,0.07,-2.24,-0.84
-0.16,0.99,-0.05,0.28,-2.45,-0.84
-0.16,0.99,-0.05,0.07,-2.59,-0.63
-0.16,0.99,-0.05,0.14,-2.31,-0.84
-0.16,0.99,-0.05,0.28,-2.38,-0.7
-0.16,0.99,-0.05,0,-2.17,-0.91
-0.16,0.99,-0.05,0.14,-2.31,-0.84
-0.16,0.99,-0.05,0.21,-2.24,-0.63
-0.16,0.99,-0.05,0.21,-2.1,-0.91
-0.16,0.99,-0.05,0.14,-2.17,-0.98
-0.16,0.99,-0.05,0.14,-2.45,-0.84
-0.16,0.99,-0.05,0.07,-2.38,-0.84
-0.16,0.99,-0.05,-0.07,-2.31,-0.84
-0.16,0.99,-0.05,0,-2.52,-0.77
-0.16,0.99,-0.05,0.14,-2.52,-0.7
-0.15,0.99,-0.05,0.14,-2.31,-0.98
-0.16,0.99,-0.05,0.21,-2.31,-0.84
-0.16,0.99,-0.05,0.35,-2.45,-0.77
-0.15,0.99,-0.05,0.28,-2.31,-0.77
-0.16,0.99,-0.05,0.35,-2.31,-0.77
-0.16,0.99,-0.05,0.21,-2.24,-0.91
-0.16,0.99,-0.05,0.28,-2.45,-0.77
-0.16,0.99,-0.05,0.07,-2.31,-0.77
-0.16,0.99,-0.05,0.28,-2.31,-0.77
-0.16,0.99,-0.05,0.14,-2.31,-0.7
-0.16,0.99,-0.05,0.14,-2.31,-0.84
-0.16,0.99,-0.05,0,-2.31,-0.91
-0.15,0.99,-0.05,0.42,-2.45,-0.7
-0.16,0.99,-0.05,0.28,-2.45,-0.84
-0.15,0.99,-0.05,0.14,-2.45,-0.7
-0.16,0.99,-0.05,0.07,-2.24,-0.84
-0.16,0.99,-0.05,0.07,-2.31,-0.84
-0.16,0.99,-0.05,0,-2.1,-1.05
-0.16,0.99,-0.05,-0.07,-2.17,-0.84
-0.16,0.99,-0.05,0.14,-2.38,-0.91
-0.15,0.99,-0.05,0.14,-2.38,-0.77
-0.16,0.99,-0.05,-17.71,-2.24,-0.98
-0.16,0.99,-0.05,0.21,-2.38,-0.77
-0.16,0.99,-0.05,0.35,-2.45,-0.77
-0.16,0.99,-0.05,0.28,-2.45,-0.77
-0.16,0.99,-0.05,0,-2.31,-0.98
-0.16,0.99,-0.05,0.07,-2.31,-0.77
-0.16,0.99,-0.05,0.07,-2.45,-0.7
-0.15,0.99,-0.05,0.14,-2.45,-0.63
-0.15,0.99,-0.05,0.14,-2.31,-0.7
-0.16,0.99,-0.05,0,-2.31,-0.84
-0.16,0.99,-0.05,0,-2.31,-0.84
-0.16,0.99,-0.05,0.21,-2.52,-0.84
-0.16,0.99,-0.05,0.14,-2.24,-0.77
-0.16,0.99,-0.05,0.21,-2.38,-0.7
-0.16,0.99,-0.05,0.21,-2.45,-0.77
-0.16,0.99,-0.05,-0.21,-2.24,-0.91
-0.16,0.99,-0.05,0,-2.24,-0.91
-0.16,0.99,-0.05,0.42,-2.52,-0.84
-0.15,0.99,-0.05,0,-2.31,-0.77
-0.16,0.99,-0.05,0.14,-2.31,-0.91
-0.16,0.99,-0.05,0.14,-2.45,-0.77
-0.16,0.99,-0.05,0.21,-2.45,-0.84
-0.16,0.99,-0.05,0.14,-2.31,-0.84
-0.15,0.99,-0.05,-0.07,-2.24,-0.91
-0.16,0.99,-0.05,0.28,-2.38,-0.91
-0.15,0.99,-0.05,0.14,-2.31,-0.7
-0.16,0.99,-0.05,0.28,-2.59,-0.7
-0.16,0.99,-0.05,0.07,-2.31,-0.84
-0.16,0.99,-0.05,0.14,-2.38,-0.77
-0.16,0.99,-0.05,-0.07,-2.17,-0.84
-0.16,0.99,-0.05,0,-2.31,-0.91
-0.15,0.99,-0.05,0.07,-2.38,-0.98
-0.15,0.99,-0.05,0.14,-2.45,-0.84
-0.16,0.99,-0.05,0,-2.24,-0.91
-0.15,0.99,-0.05,0.07,-2.31,-0.7
-0.16,0.99,-0.05,0.28,-2.31,-0.84
-0.16,0.99,-0.05,0.28,-2.31,-0.84
-0.15,0.99,-0.05,0,-2.38,-0.77
-0.16,0.99,-0.05,0,-2.31,-0.7
-0.16,0.99,-0.05,0.07,-2.45,-0.91
-0.16,0.99,-0.05,0.07,-2.31,-0.91
-0.16,0.99,-0.05,-0.14,-2.38,-0.98
-0.16,0.99,-0.05,0.21,-2.52,-0.7
-0.16,0.99,-0.05,0.14,-2.45,-0.84
-0.15,0.99,-0.05,0.07,-2.38,-0.63
-0.16,0.99,-0.05,0.14,-2.52,-0.84
-0.16,0.99,-0.05,0.21,-2.52,-0.84
-0.16,0.99,-0.05,0.14,-2.31,-0.7
-0.16,0.99,-0.05,0.49,-2.45,-0.63
-0.16,0.99,-0.05,0.21,-2.38,-0.77
-0.15,0.99,-0.05,0.21,-2.31,-0.84
-0.16,0.99,-0.05,0.07,-2.31,-0.84
-0.16,0.99,-0.05,0.21,-2.38,-0.84
-0.16,0.99,-0.05,0,-2.24,-0.84
-0.16,0.99,-0.05,0.28,-2.45,-0.7
-0.16,0.99,-0.05,0,-2.31,-0.91
-0.16,0.99,-0.05,-0.07,-2.17,-0.91
-0.16,0.99,-0.05,0.14,-2.45,-0.7
-0.15,0.99,-0.05,0.21,-2.45,-0.84
-0.15,0.99,-0.05,-0.14,-2.31,-0.84
-0.16,0.99,-0.05,0,-2.24,-0.77
-0.16,0.99,-0.05,-0.14,-2.31,-0.84
-0.16,0.99,-0.05,0.35,-2.52,-0.77
-0.16,0.99,-0.05,0,-2.1,-0.91
-0.16,0.99,-0.05,0.07,-2.38,-1.05
-0.16,0.99,-0.05,-0.14,-2.24,-0.84
-0.16,0.99,-0.05,0.07,-2.17,-0.91
-0.16,0.99,-0.05,-0.07,-2.38,-0.84
-0.16,0.99,-0.05,0,-2.24,-0.84
-0.16,0.99,-0.05,0,-2.24,-0.84
-0.16,0.99,-0.05,0,-2.38,-0.98
-0.16,0.99,-0.05,-0.07,-2.24,-0.84
-0.16,0.99,-0.05,0.14,-2.38,-0.91
-0.16,0.99,-0.05,0,-2.38,-0.77
-0.16,0.99,-0.05,-0.21,-2.17,-0.98
-0.16,0.99,-0.05,0,-2.24,-0.84
-0.16,0.99,-0.05,-0.07,-2.31,-0.84
-0.16,0.99,-0.05,0.07,-2.31,-0.91
-0.16,0.99,-0.05,0.07,-2.38,-0.84
-0.16,0.99,-0.05,0.14,-2.52,-0.7
-0.16,0.99,-0.05,0.07,-2.31,-0.98
-0.16,0.99,-0.05,0.14,-2.31,-0.77
-0.16,0.99,-0.05,0.14,-2.45,-0.84
-0.15,0.99,-0.05,0.42,-2.52,-0.63
-0.16,0.99,-0.05,-0.07,-2.24,-0.91
-0.16,0.99,-0.05,-0.07,-2.31,-0.91
-0.16,0.99,-0.05,0.07,-2.38,-0.84
-0.16,0.99,-0.05,0.28,-2.31,-0.91
-0.16,0.99,-0.05,0.07,-2.31,-0.84
-0.16,0.99,-0.05,0.21,-2.31,-0.84
-0.16,0.99,-0.05,-0.14,-2.24,-1.05
-0.16,0.99,-0.05,0.21,-2.38,-0.98
-0.16,0.99,-0.05,0.07,-2.38,-0.63
-0.15,0.99,-0.05,0.21,-2.45,-0.77
-0.15,0.99,-0.05,-0.07,-2.24,-0.98
-0.16,0.99,-0.05,0.28,-2.52,-0.84
-0.16,0.99,-0.05,0.21,-2.45,-0.77
-0.16,0.99,-0.05,0.07,-2.31,-0.84
-0.15,0.99,-0.05,0.07,-2.38,-0.84
-0.16,0.99,-0.05,0.21,-2.31,-0.84
-0.16,0.99,-0.05,0.28,-2.38,-0.77
-0.16,0.99,-0.05,0.07,-2.24,-0.84
-0.16,0.99,-0.05,0.14,-2.31,-0.84
-0.16,0.99,-0.05,0.07,-2.38,-0.98
-0.16,0.99,-0.05,0.28,-2.52,-0.98
-0.16,0.99,-0.05,0.21,-2.59,-0.77
-0.16,0.99,-0.05,0.28,-2.38,-0.84
-0.16,0.99,-0.05,0.21,-2.52,-0.77
-0.16,0.99,-0.05,0.07,-2.52,-0.84
-0.16,0.99,-0.05,0,-2.38,-0.91
-0.16,0.99,-0.05,0.14,-2.38,-0.91
-0.16,0.99,-0.05,0,-2.31,-1.05
-0.16,0.99,-0.05,0.14,-2.45,-0.63
-0.16,0.99,-0.05,0.21,-2.52,-0.7
-0.16,0.99,-0.05,0.21,-2.45,-0.84
-0.16,0.99,-0.05,0.21,-2.38,-0.77
-0.16,0.99,-0.05,0.07,-2.45,-0.77
-0.16,0.99,-0.05,0.07,-2.24,-0.84
-0.16,0.99,-0.05,0.28,-2.45,-0.77
-0.16,0.99,-0.05,0.07,-2.1,-0.98
-0.16,0.99,-0.05,0.28,-2.24,-0.98
-0.16,0.99,-0.05,0.14,-2.31,-0.77
-0.16,0.99,-0.05,0.28,-2.45,-0.7
-0.16,0.99,-0.05,0.21,-2.52,-0.84
-0.16,0.99,-0.05,0,-2.31,-0.91
-0.16,0.99,-0.05,0,-2.38,-0.77
-0.16,0.99,-0.05,0,-2.1,-0.98
-0.16,0.99,-0.05,0.07,-2.24,-0.91
-0.16,0.99,-0.05,0.07,-2.31,-0.84
-0.16,0.99,-0.05,0.21,-2.45,-0.7
-0.16,0.99,-0.05,0.21,-2.31,-0.77
-0.16,0.99,-0.05,0,-2.31,-0.91
-0.16,0.99,-0.05,0.28,-2.45,-0.77
-0.16,0.99,-0.05,0,-2.38,-0.84
-0.16,0.99,-0.05,0.21,-2.38,-0.84
-0.16,0.99,-0.05,-0.07,-2.38,-0.84
-0.16,0.99,-0.05,0.21,-2.38,-0.84
-0.16,0.99,-0.05,0.21,-2.38,-0.91
-0.16,0.99,-0.05,0.14,-2.31,-0.77
-0.16,0.99,-0.05,0.14,-2.31,-0.7
-0.16,0.99,-0.05,0.28,-2.31,-0.91
-0.15,0.99,-0.05,0.42,-2.59,-0.7
-0.16,0.99,-0.05,0.07,-2.31,-0.77
-0.16,0.99,-0.05,0.07,-2.24,-0.77
-0.16,0.99,-0.05,0.07,-2.38,-0.98
-0.16,0.99,-0.05,0.07,-2.45,-0.7
-0.16,0.99,-0.05,0.21,-2.31,-0.91
-0.16,0.99,-0.05,0.21,-2.45,-0.63
-0.16,0.99,-0.05,0.14,-2.31,-0.77
-0.16,0.99,-0.05,0.21,-2.24,-0.84
-0.16,0.99,-0.05,0.21,-2.31,-0.84
-0.15,0.99,-0.05,0.14,-2.31,-0.77
-0.16,0.99,-0.05,0.14,-2.38,-0.91
-0.15,0.99,-0.05,0.42,-2.31,-0.77
-0.16,0.99,-0.05,0.28,-2.24,-0.98
-0.16,0.99,-0.05,0.07,-2.31,-0.91
-0.16,0.99,-0.05,0.14,-2.24,-0.77
-0.16,0.99,-0.05,0.28,-2.45,-0.77
-0.16,0.99,-0.05,0.28,-2.45,-0.91
-0.16,0.99,-0.05,0.14,-2.45,-0.84
-0.16,0.99,-0.05,0.14,-2.31,-0.98
-0.16,0.99,-0.05,0.14,-2.52,-0.84
-0.16,0.99,-0.05,0.21,-2.52,-0.7
-0.15,0.99,-0.05,0.14,-2.45,-0.77
-0.16,0.99,-0.05,-0.21,-2.31,-1.05
-0.16,0.99,-0.05,0.14,-2.38,-0.7
-0.16,0.99,-0.05,0.35,-2.31,-0.77
-0.16,0.99,-0.05,0.28,-2.31,-0.84
-0.16,0.99,-0.05,0,-2.31,-0.91
-0.16,0.99,-0.05,0.14,-2.52,-0.77
-0.16,0.99,-0.05,-0.21,-2.24,-0.91
-0.16,0.99,-0.05,-0.07,-2.45,-1.12
-0.15,0.99,-0.05,0.07,-2.52,-0.98
-0.16,0.99,-0.05,0.07,-2.52,-0.63
-0.15,0.99,-0.05,0.07,-2.31,-0.91
-0.16,0.99,-0.05,0.14,-2.52,-0.77
-0.16,0.99,-0.05,0.21,-2.45,-0.84
-0.16,0.99,-0.05,0.28,-2.45,-0.77
-0.16,0.99,-0.05,0.35,-2.52,-0.91
-0.16,0.99,-0.05,0.49,-2.59,-0.98
-0.15,0.99,-0.05,0.35,-2.52,-0.84
-0.16,0.99,-0.05,0.07,-2.24,-0.77
-0.16,0.99,-0.05,0.21,-2.24,-0.7
-0.16,0.99,-0.05,-0.07,-2.17,-0.98
-0.16,0.99,-0.05,0.14,-2.31,-0.84
-0.16,0.99,-0.05,0.28,-2.45,-0.84
-0.16,0.99,-0.05,0.35,-2.59,-0.7
-0.16,0.99,-0.05,0.07,-2.31,-0.77
-0.16,0.99,-0.05,0.28,-2.45,-0.7
-0.16,0.99,-0.05,0,-2.31,-0.84
-0.16,0.99,-0.05,0.14,-2.38,-0.84
-0.15,0.99,-0.05,0.14,-2.24,-0.77
-0.16,0.99,-0.05,0.28,-2.45,-0.7
-0.16,0.99,-0.05,0.07,-2.38,-0.91
-0.15,0.99,-0.05,0,-2.31,-0.91
-0.15,0.99,-0.05,0.21,-2.38,-0.77
-0.16,0.99,-0.05,0,-2.1,-0.91
-0.16,0.99,-0.05,0.14,-2.38,-0.77
-0.16,0.99,-0.05,0.14,-2.38,-0.63
-0.16,0.99,-0.05,0.28,-2.45,-0.84
-0.16,0.99,-0.05,0.07,-2.38,-0.91
-0.16,0.99,-0.05,0,-2.24,-0.91
-0.16,0.99,-0.05,0.35,-2.38,-0.7
-0.16,0.99,-0.05,0.14,-2.24,-0.84
-0.16,0.99,-0.05,0.35,-2.52,-0.77
-0.16,0.99,-0.05,0.14,-2.31,-0.84
-0.16,0.99,-0.05,-0.07,-2.24,-0.63
-0.16,0.99,-0.05,0.21,-2.45,-0.84
-0.16,0.99,-0.05,0.28,-2.45,-0.77
-0.16,0.99,-0.05,0.07,-2.38,-0.91
-0.16,0.99,-0.05,0.21,-2.38,-0.84
-0.16,0.99,-0.05,0.21,-2.52,-0.7
-0.16,0.99,-0.05,0.28,-2.45,-0.84
-0.16,0.99,-0.05,0.42,-2.52,-0.7
-0.16,0.99,-0.05,0.14,-2.31,-0.77
-0.16,0.99,-0.05,0.35,-2.38,-0.77
-0.15,0.99,-0.05,0.28,-2.45,-0.84
-0.16,0.99,-0.05,-0.07,-2.73,-0.63
-0.16,0.99,-0.05,0.35,-2.45,-0.7
-0.16,0.99,-0.05,0,-2.31,-0.77
-0.16,0.99,-0.05,0.14,-2.31,-0.84
-0.16,0.99,-0.05,0,-2.31,-0.84
-0.16,0.99,-0.05,0.14,-2.45,-0.56
-0.16,0.99,-0.05,0.28,-2.45,-0.63
-0.16,0.99,-0.05,0.14,-2.59,-0.7
-0.16,0.99,-0.05,-0.07,-2.45,-0.77
-0.16,0.99,-0.05,-0.14,-2.24,-0.84
-0.16,0.99,-0.05,0.14,-2.38,-0.84
-0.16,0.99,-0.05,0.28,-2.45,-0.7
-0.16,0.99,-0.05,0.07,-2.38,-0.84
-0.15,0.99,-0.05,0.14,-2.59,-1.05
-0.16,0.99,-0.05,0.14,-2.38,-0.91
-0.16,0.99,-0.05,0.28,-2.45,-0.77
-0.15,0.99,-0.05,0.35,-2.24,-0.77
-0.16,0.99,-0.05,0.28,-2.31,-0.77
-0.16,0.99,-0.05,0.49,-2.45,-0.63
-0.16,0.99,-0.05,0.21,-2.45,-0.98
-0.16,0.99,-0.05,0.14,-2.45,-0.77
-0.16,0.99,-0.05,0.14,-2.59,-0.56
-0.15,0.99,-0.05,0.35,-2.52,-0.63
-0.16,0.99,-0.05,0.14,-2.45,-0.77
-0.16,0.99,-0.05,0.21,-2.45,-0.84
-0.16,0.99,-0.05,0.14,-2.45,-0.77
-0.16,0.99,-0.05,0.21,-2.45,-0.84
-0.15,0.99,-0.05,0.28,-2.38,-0.84
-0.16,0.99,-0.05,0.07,-2.45,-0.7
-0.15,0.99,-0.05,0.35,-2.52,-0.7
-0.15,0.99,-0.05,0,-2.31,-0.84
-0.15,0.99,-0.05,0.07,-2.24,-0.77
-0.15,0.99,-0.05,0.14,-2.38,-0.91
-0.16,0.99,-0.05,0,-2.24,-0.91
-0.16,0.99,-0.05,0.14,-2.17,-0.84
-0.16,0.99,-0.05,-0.14,-2.1,-0.98
-0.16,0.99,-0.05,0.14,-2.31,-0.77
-0.16,0.99,-0.05,0.14,-2.38,-0.77
-0.16,0.99,-0.05,0,-2.31,-0.84
-0.16,0.99,-0.05,-0.07,-2.31,-0.77
-0.16,0.99,-0.05,0,-2.45,-0.63
-0.16,0.99,-0.05,0,-2.38,-0.7
-0.16,0.99,-0.05,0.07,-2.31,-0.91
-0.16,0.99,-0.05,0.07,-2.31,-0.91
-0.16,0.99,-0.05,0.07,-2.31,-0.91
-0.16,0.99,-0.05,0.21,-2.38,-0.84
-0.16,0.99,-0.05,0.35,-2.45,-0.56
-0.15,0.99,-0.05,0.14,-2.38,-0.63
-0.16,0.99,-0.05,0.21,-2.38,-0.77
-0.16,0.99,-0.05,0.21,-2.38,-0.84
-0.16,0.99,-0.05,0.35,-2.52,-0.63
-0.16,0.99,-0.05,0.07,-2.38,-0.84
-0.15,0.99,-0.05,0.14,-2.24,-0.91
-0.16,0.99,-0.05,0.21,-2.38,-0.77
-0.16,0.99,-0.05,0,-2.17,-0.91
-0.16,0.99,-0.05,0.21,-2.38,-0.84
-0.16,0.99,-0.05,0.28,-2.38,-0.7
-0.16,0.99,-0.05,0.35,-2.52,-0.7
-0.16,0.99,-0.05,0.14,-2.38,-0.84
-0.16,0.99,-0.05,0.28,-2.59,-0.91
-0.16,0.99,-0.05,0.21,-2.45,-0.63
-0.16,0.99,-0.05,0.21,-2.24,-0.84
-0.16,0.99,-0.05,0,-2.17,-0.91
-0.16,0.99,-0.05,0,-2.31,-0.84
-0.16,0.99,-0.05,0.07,-2.31,-0.77
-0.16,0.99,-0.05,0.35,-2.38,-0.77
-0.16,0.99,-0.05,0.21,-2.31,-0.77
-0.15,0.99,-0.05,0.14,-2.31,-0.84
-0.16,0.99,-0.05,0.07,-2.31,-0.77
-0.16,0.99,-0.05,0.28,-2.38,-0.77
-0.16,0.99,-0.05,0.07,-2.24,-0.84
-0.16,0.99,-0.05,0.42,-2.45,-0.63
-0.16,0.99,-0.05,0.21,-2.38,-0.91
-0.16,0.99,-0.05,0.21,-2.45,-0.63
-0.16,0.99,-0.05,0.21,-2.24,-0.98
-0.16,0.99,-0.05,0.14,-2.52,-0.84
-0.16,0.99,-0.05,0.21,-2.52,-0.77
-0.16,0.99,-0.05,0.28,-2.45,-0.7
-0.16,0.99,-0.05,0,-2.31,-0.84
-0.16,0.99,-0.05,0.14,-2.31,-0.84
-0.16,0.99,-0.05,0.07,-2.31,-0.7
-0.16,0.99,-0.05,0.28,-2.31,-0.7
-0.16,0.99,-0.05,0.28,-2.38,-0.7
-0.15,0.99,-0.05,0.14,-2.17,-0.84
-0.15,0.99,-0.05,0.21,-2.24,-0.84
-0.16,0.99,-0.05,0.21,-2.31,-1.05
-0.16,0.99,-0.05,0.35,-2.45,-0.84
-0.16,0.99,-0.05,0.28,-2.31,-0.84
-0.16,0.99,-0.05,-0.07,-2.45,-0.84
-0.16,0.99,-0.05,-0.07,-2.38,-0.91
-0.15,0.99,-0.05,0.07,-2.52,-0.91
-0.16,0.99,-0.05,-0.07,-2.38,-0.91
-0.16,0.99,-0.05,0.21,-2.52,-0.84
-0.16,0.99,-0.05,0.35,-2.52,-0.84
-0.16,0.99,-0.05,0.07,-2.17,-0.91
-0.16,0.99,-0.05,-17.85,-2.17,-0.91
-0.16,0.99,-0.05,0.49,-2.45,-0.7
-0.16,0.99,-0.05,0.07,-2.31,-0.91
-0.16,0.99,-0.05,0.21,-2.31,-0.91
-0.16,0.99,-0.05,0.28,-2.31,-0.91
-0.16,0.99,-0.05,0.21,-2.31,-0.7
-0.16,0.99,-0.05,0.35,-2.59,-0.63
-0.16,0.99,-0.05,0.42,-2.31,-0.84
-0.16,0.99,-0.05,-0.07,-2.24,-0.98
-0.16,0.99,-0.05,0.21,-2.38,-0.77
-0.16,0.99,-0.05,0.14,-2.52,-0.77
-0.16,0.99,-0.05,0.21,-2.52,-0.77
-0.16,0.99,-0.05,0.21,-2.52,-0.7
-0.16,0.99,-0.05,0.14,-2.59,-0.7
-0.16,0.99,-0.05,0.07,-2.24,-0.84
-0.15,0.99,-0.05,0.14,-2.31,-0.77
-0.15,0.99,-0.05,0.07,-2.31,-0.91
-0.16,0.99,-0.05,0.07,-2.31,-0.7
-0.16,0.99,-0.05,0.21,-2.52,-0.91
-0.16,0.99,-0.05,0.21,-2.45,-0.7
-0.15,0.99,-0.05,0.21,-2.24,-0.91
-0.16,0.99,-0.05,0.14,-2.45,-0.84
-0.16,0.99,-0.05,-0.14,-2.31,-0.91
-0.16,0.99,-0.05,0.07,-2.38,-0.84
-0.16,0.99,-0.05,0.07,-2.31,-0.91
-0.16,0.99,-0.05,0.07,-2.38,-0.84
-0.15,0.99,-0.05,0.21,-2.31,-0.77
-0.16,0.99,-0.05,0.07,-2.31,-0.84
-0.16,0.99,-0.05,0.14,-2.38,-0.77
-0.16,0.99,-0.05,0.28,-2.45,-0.7
-0.16,0.99,-0.05,0.14,-2.31,-0.84
-0.16,0.99,-0.05,0.35,-2.38,-0.7
-0.15,0.99,-0.05,0.07,-2.38,-0.91
-0.16,0.99,-0.05,0.14,-2.31,-0.77
-0.16,0.99,-0.05,-0.07,-2.31,-0.98
-0.16,0.99,-0.05,0.21,-2.38,-0.7
-0.16,0.99,-0.05,0.07,-2.24,-0.84
-0.16,0.99,-0.05,-0.07,-2.31,-0.91
-0.16,0.99,-0.05,-0.07,-2.24,-1.05
-0.16,0.99,-0.05,0.21,-2.24,-0.98
-0.16,0.99,-0.05,0.07,-2.24,-0.84
-0.16,0.99,-0.05,0.35,-2.38,-0.63
-0.16,0.99,-0.05,0.07,-2.31,-0.84
-0.16,0.99,-0.05,0.28,-2.45,-0.7
-0.15,0.99,-0.05,0.21,-2.45,-0.77
-0.16,0.99,-0.05,0.07,-2.31,-1.05
-0.16,0.99,-0.05,0,-2.31,-0.63
-0.15,0.99,-0.05,0.35,-2.45,-0.77
-0.16,0.99,-0.05,0.07,-2.31,-0.84
-0.16,0.99,-0.05,0.35,-2.59,-0.7
-0.16,0.99,-0.05,-0.07,-2.31,-0.91
-0.16,0.99,-0.05,0.07,-2.31,-0.91
-0.16,0.99,-0.05,0,-2.31,-0.98
-0.16,0.99,-0.05,0.07,-2.24,-0.98
-0.16,0.99,-0.05,0.21,-2.52,-0.77
-0.16,0.99,-0.05,0.21,-2.45,-0.77
-0.15,0.99,-0.05,0.42,-2.45,-0.63
-0.16,0.99,-0.05,0.07,-2.24,-0.84
-0.15,0.99,-0.05,0.28,-2.45,-0.77
-0.16,0.99,-0.05,0.21,-2.45,-0.77
-0.16,0.99,-0.05,0.14,-2.31,-0.84
-0.16,0.99,-0.05,0.21,-2.31,-0.7
-0.16,0.99,-0.05,0.14,-2.31,-0.91
-0.16,0.99,-0.05,-0.14,-2.45,-0.98
-0.16,0.99,-0.05,-0.07,-2.52,-0.84
-0.16,0.99,-0.05,0.14,-2.45,-0.7
-0.16,0.99,-0.05,0.07,-2.52,-0.63
-0.16,0.99,-0.05,0.21,-2.31,-0.84
-0.16,0.99,-0.05,0,-2.38,-0.84
-0.16,0.99,-0.05,0.14,-2.38,-0.77
-0.15,0.99,-0.05,0.28,-2.52,-0.84
-0.16,0.99,-0.05,0.42,-2.59,-0.7
-0.16,0.99,-0.05,0.42,-2.52,-0.84
-0.16,0.99,-0.05,0.07,-2.45,-0.84
-0.16,0.99,-0.05,0.14,-2.38,-0.84
-0.16,0.99,-0.05,0.28,-2.45,-0.77
-0.16,0.99,-0.05,0.21,-2.38,-0.7
-0.16,0.99,-0.05,0.28,-2.38,-0.77
-0.16,0.99,-0.05,0.07,-2.24,-0.77
-0.16,0.99,-0.05,0.07,-2.17,-0.91
-0.16,0.99,-0.05,0.21,-2.52,-0.7
-0.16,0.99,-0.05,0,-2.24,-0.77
-0.16,0.99,-0.05,0.21,-2.31,-0.7
-0.16,0.99,-0.05,0.07,-2.24,-0.77
-0.16,0.99,-0.05,-0.07,-2.17,-0.77
-0.16,0.99,-0.05,0.21,-2.45,-0.7
-0.16,0.99,-0.05,0.21,-2.17,-1.05
-0.16,0.99,-0.05,0.14,-2.38,-0.91
-0.15,0.99,-0.05,0.14,-2.45,-0.84
-0.16,0.99,-0.05,0.28,-2.59,-0.77
-0.16,0.99,-0.05,0.21,-2.45,-0.84
-0.16,0.99,-0.05,0.28,-2.45,-0.77
-0.16,0.99,-0.05,0.07,-2.38,-0.84
-0.16,0.99,-0.05,0.35,-2.52,-0.77
-0.16,0.99,-0.05,0.14,-2.17,-0.84
-0.16,0.99,-0.05,0.07,-2.24,-0.77
-0.16,0.99,-0.05,0.07,-2.31,-0.84
-0.15,0.99,-0.05,0.35,-2.45,-0.63
-0.16,0.99,-0.05,0,-2.24,-0.98
-0.16,0.99,-0.05,0.14,-2.24,-0.98
-0.16,0.99,-0.05,0,-2.31,-0.91
-0.16,0.99,-0.05,0.14,-2.31,-0.84
-0.16,0.99,-0.05,0,-2.38,-0.91
-0.16,0.99,-0.05,0.35,-2.59,-0.77
-0.16,0.99,-0.05,0.07,-2.45,-0.91
-0.15,0.99,-0.05,0.07,-2.52,-0.63
-0.16,0.99,-0.05,0,-2.17,-0.98
-0.16,0.99,-0.05,0.14,-2.45,-0.7
-0.16,0.99,-0.05,0.07,-2.31,-0.84
-0.15,0.99,-0.05,0.07,-2.24,-0.84
-0.16,0.99,-0.05,0,-2.38,-0.91
-0.16,0.99,-0.05,0.07,-2.31,-0.77
-0.16,0.99,-0.05,0.21,-2.45,-0.77
-0.16,0.99,-0.05,0.14,-2.31,-0.84
-0.16,0.99,-0.05,0.21,-2.38,-0.91
-0.16,0.99,-0.05,0.14,-2.38,-0.77
-0.16,0.99,-0.05,0.07,-2.31,-0.84
-0.16,0.99,-0.05,0.21,-2.45,-0.77
-0.16,0.99,-0.05,0,-2.31,-0.91
-0.16,0.99,-0.05,0.28,-2.45,-0.77
-0.16,0.99,-0.05,0,-2.24,-0.84
-0.16,0.99,-0.05,0.28,-2.45,-0.7
-0.16,0.99,-0.05,0,-2.24,-0.98
-0.15,0.99,-0.05,0.07,-2.31,-0.91
-0.16,0.99,-0.05,-0.07,-2.31,-0.77
-0.16,0.99,-0.05,0.14,-2.31,-0.7
-0.15,0.99,-0.05,0,-2.31,-0.84
-0.16,0.99,-0.05,0.21,-2.45,-0.63
-0.16,0.99,-0.05,0,-2.17,-0.98
-0.16,0.99,-0.05,0.21,-2.31,-0.84
-0.16,0.99,-0.05,0.42,-2.52,-0.77
-0.16,0.99,-0.05,0.21,-2.45,-0.84
-0.16,0.99,-0.05,-0.07,-2.38,-0.63
-0.16,0.99,-0.05,0,-2.59,-0.84
-0.16,0.99,-0.05,0.07,-2.45,-0.84
-0.16,0.99,-0.05,0.21,-2.45,-0.77
-0.16,0.99,-0.05,-0.07,-2.31,-0.84
-0.16,0.99,-0.05,0.14,-2.38,-0.98
-0.15,0.99,-0.05,0,-2.31,-0.77
-0.16,0.99,-0.05,0.28,-2.45,-0.98
-0.16,0.99,-0.05,0.14,-2.45,-0.77
-0.16,0.99,-0.05,0.14,-2.31,-0.84
-0.15,0.99,-0.05,0.21,-2.31,-0.77
-0.16,0.99,-0.05,0.35,-2.45,-0.77
-0.16,0.99,-0.05,0.35,-2.38,-0.84
-0.16,0.99,-0.05,0.21,-2.38,-0.77
-0.16,0.99,-0.05,0.28,-2.45,-0.77
-0.16,0.99,-0.05,0.07,-2.31,-1.05
-0.16,0.99,-0.05,0.07,-2.31,-0.77
-0.16,0.99,-0.05,-0.14,-2.24,-0.98
-0.16,0.99,-0.05,0.07,-2.45,-0.84
-0.15,0.99,-0.05,0.14,-2.38,-0.77
-0.16,0.99,-0.05,0.14,-2.52,-0.91
-0.16,0.99,-0.05,-0.07,-2.17,-0.98
-0.16,0.99,-0.05,0,-2.31,-0.84
-0.16,0.99,-0.05,0,-2.31,-0.84
-0.16,0.99,-0.05,0.21,-2.45,-0.7
-0.16,0.99,-0.05,0.14,-2.38,-0.84
-0.15,0.99,-0.05,0.07,-2.38,-0.84
-0.15,0.99,-0.05,0.21,-2.45,-0.77
-0.16,0.99,-0.05,-0.07,-2.24,-0.84
-0.16,0.99,-0.05,0.28,-2.38,-0.77
-0.16,0.99,-0.05,0,-2.24,-0.84
-0.15,0.99,-0.05,-0.21,-2.24,-1.05
-0.15,0.99,-0.05,0.28,-2.45,-0.84
-0.15,0.99,-0.05,-0.07,-2.31,-0.77
-0.16,0.99,-0.05,0.14,-2.45,-0.7
-0.16,0.99,-0.05,-0.07,-2.17,-0.91
-0.16,0.99,-0.05,-0.14,-2.31,-0.91
-0.16,0.99,-0.05,0.07,-2.31,-0.91
-0.16,0.99,-0.05,0.14,-2.31,-0.77
-0.16,0.99,-0.05,0.28,-2.52,-0.7
-0.16,0.99,-0.05,0.35,-2.45,-0.91
-0.16,0.99,-0.05,0,-2.45,-0.84
-0.16,0.99,-0.05,0.21,-2.45,-0.84
-0.16,0.99,-0.05,0.35,-2.52,-0.77
-0.15,0.99,-0.05,0.07,-2.38,-0.7
-0.15,0.99,-0.05,0.21,-2.45,-0.7
-0.15,0.99,-0.05,0.07,-2.38,-0.77
-0.15,0.99,-0.05,0.28,-2.52,-0.63
-0.16,0.99,-0.05,0.21,-2.31,-0.91
-0.16,0.99,-0.05,0.35,-2.45,-0.63
-0.15,0.99,-0.05,0.14,-2.31,-0.7
-0.16,0.99,-0.05,0.07,-2.24,-0.77
-0.16,0.99,-0.05,0.21,-2.31,-0.84
-0.16,0.99,-0.05,0.35,-2.52,-0.63
-0.16,0.99,-0.05,0.07,-2.38,-0.84
-0.16,0.99,-0.05,0,-2.45,-0.7
-0.16,0.99,-0.05,-0.07,-2.38,-0.84
-0.16,0.99,-0.05,0.07,-2.38,-0.91
-0.16,0.99,-0.05,-0.07,-2.24,-0.91
-0.16,0.99,-0.05,0.28,-2.45,-0.77
-0.16,0.99,-0.05,0.14,-2.45,-0.84
-0.15,0.99,-0.05,0.14,-2.31,-0.77
-0.15,0.99,-0.05,0.14,-2.24,-0.91
-0.16,0.99,-0.05,0.14,-2.45,-0.77
-0.15,0.99,-0.05,0.07,-2.31,-0.77
-0.15,0.99,-0.05,0.14,-2.31,-0.91
-0.15,0.99,-0.05,0.35,-2.31,-0.91
-0.16,0.99,-0.05,0.21,-2.24,-0.77
-0.16,0.99,-0.05,0,-2.38,-0.77
-0.15,0.99,-0.05,0.07,-2.31,-0.84
-0.16,0.99,-0.05,0,-2.17,-0.63
-0.16,0.99,-0.05,0.28,-2.38,-0.77
-0.16,0.99,-0.05,0.21,-2.24,-0.98
-0.16,0.99,-0.05,-17.85,-2.38,-0.84
-0.16,0.99,-0.05,0.21,-2.45,-0.84
-0.15,0.99,-0.05,0,-2.31,-0.91
-0.16,0.99,-0.05,0.14,-2.38,-0.84
-0.16,0.99,-0.05,0.07,-2.38,-0.84
-0.16,0.99,-0.05,0.07,-2.31,-0.84
-0.16,0.99,-0.05,0.14,-2.31,-0.84
-0.16,0.99,-0.05,0.35,-2.45,-0.7
-0.16,0.99,-0.05,0.28,-2.45,-0.7
-0.15,0.99,-0.05,-0.07,-2.24,-0.91
-0.15,0.99,-0.05,0.21,-2.45,-0.84
-0.16,0.99,-0.05,0.21,-2.38,-0.77
-0.16,0.99,-0.05,0.35,-2.38,-0.7
-0.15,0.99,-0.05,0.14,-2.38,-0.84
-0.16,0.99,-0.05,0.21,-2.31,-0.77
-0.16,0.99,-0.05,0.07,-2.38,-0.84
-0.16,0.99,-0.05,0.07,-2.38,-0.84
-0.16,0.99,-0.05,0,-2.31,-0.98
-0.16,0.99,-0.05,0.21,-2.45,-0.98
-0.16,0.99,-0.05,0.28,-2.38,-0.84
-0.15,0.99,-0.05,0.21,-2.38,-0.84
-0.16,0.99,-0.05,0.07,-2.38,-0.77
-0.16,0.99,-0.05,0.42,-2.45,-0.63
-0.16,0.99,-0.05,0.35,-2.45,-0.7
-0.16,0.99,-0.05,0.07,-2.45,-0.91
-0.16,0.99,-0.05,0.42,-2.52,-0.84
-0.16,0.99,-0.05,-0.07,-2.24,-0.84
-0.15,0.99,-0.05,0.28,-2.45,-0.77
-0.16,0.99,-0.05,0.07,-2.38,-0.77
-0.16,0.99,-0.05,0.21,-2.52,-0.77
-0.16,0.99,-0.05,0.21,-2.31,-0.84
-0.16,0.99,-0.05,0.14,-2.31,-0.84
-0.16,0.99,-0.05,0.14,-2.45,-0.7
-0.15,0.99,-0.05,0.21,-2.45,-0.7
-0.16,0.99,-0.05,-0.07,-2.24,-0.91
-0.16,0.99,-0.05,-0.07,-2.31,-0.91
-0.16,0.99,-0.05,0,-2.31,-0.84
-0.16,0.99,-0.05,0.14,-2.31,-0.77
-0.16,0.99,-0.05,0,-2.31,-0.98
-0.16,0.99,-0.05,0.28,-2.38,-0.84
-0.16,0.99,-0.05,0.21,-2.31,-0.91
-0.15,0.99,-0.05,0.28,-2.45,-0.7
-0.16,0.99,-0.05,0.28,-2.45,-0.7
-0.16,0.99,-0.05,0,-2.45,-0.84
-0.16,0.99,-0.05,0.07,-2.38,-0.98
-0.15,0.99,-0.05,0.07,-2.45,-0.7
-0.16,0.99,-0.05,0,-2.17,-0.91
-0.15,0.99,-0.05,0.07,-2.31,-0.84
-0.16,0.99,-0.05,0.14,-2.24,-0.84
-0.16,0.99,-0.05,-0.14,-2.17,-0.91
-0.16,0.99,-0.05,0.07,-2.31,-0.98
-0.16,0.99,-0.05,0.35,-2.45,-0.7
-0.16,0.99,-0.05,-0.07,-2.31,-0.84
-0.16,0.99,-0.05,0.28,-2.1,-1.05
-0.16,0.99,-0.05,0.35,-2.59,-0.77
-0.16,0.99,-0.05,0.21,-2.38,-0.77
-0.16,0.99,-0.05,0.28,-2.52,-0.77
-0.16,0.99,-0.05,0.14,-2.45,-0.77
-0.16,0.99,-0.05,0.28,-2.52,-0.98
-0.16,0.99,-0.05,0.28,-2.38,-0.98
-0.16,0.99,-0.05,0.14,-2.17,-0.98
-0.16,0.99,-0.05,0.21,-2.45,-0.77
-0.16,0.99,-0.05,0.35,-2.45,-0.7
-0.16,0.99,-0.05,0,-2.24,-0.84
-0.16,0.99,-0.05,0.21,-2.31,-1.05
-0.16,0.99,-0.05,0,-2.24,-0.7
-0.16,0.99,-0.05,0.28,-2.38,-0.77
-0.16,0.99,-0.05,0.28,-2.45,-0.84
-0.15,0.99,-0.05,0.28,-2.45,-0.7
-0.16,0.99,-0.05,0.07,-2.38,-0.84
-0.16,0.99,-0.05,0.28,-2.59,-0.77
-0.16,0.99,-0.05,0.14,-2.45,-0.77
-0.16,0.99,-0.05,0,-2.38,-0.84
-0.15,0.99,-0.05,0.21,-2.31,-0.84
-0.16,0.99,-0.05,0.28,-2.45,-0.63
-0.16,0.99,-0.05,0.21,-2.45,-0.84
-0.16,0.99,-0.05,-0.07,-2.1,-0.91
-0.16,0.99,-0.05,0.21,-2.38,-0.77
-0.15,0.99,-0.05,0.07,-2.24,-0.77
-0.16,0.99,-0.05,0.21,-2.17,-0.98
-0.15,0.99,-0.05,0.14,-2.45,-0.63
-0.16,0.99,-0.05,0.21,-2.38,-0.84
-0.16,0.99,-0.05,0.21,-2.59,-0.77
-0.16,0.99,-0.05,-0.14,-2.24,-0.91
-0.16,0.99,-0.05,0.07,-2.45,-1.05
-0.16,0.99,-0.05,0.21,-2.52,-0.84
-0.16,0.99,-0.05,0.21,-2.45,-0.7
-0.16,0.99,-0.05,0.07,-2.66,-0.7
-0.16,0.99,-0.05,0.28,-2.59,-0.7
-0.16,0.99,-0.05,0.21,-2.45,-0.77
-0.16,0.99,-0.05,0.21,-2.45,-0.77
-0.16,0.99,-0.05,0.14,-2.45,-0.7
-0.15,0.99,-0.05,0.07,-2.38,-0.7
-0.16,0.99,-0.05,0.14,-2.31,-0.84
-0.16,0.99,-0.05,-0.14,-2.31,-0.98
-0.16,0.99,-0.05,0.07,-2.24,-0.84
-0.16,0.99,-0.05,0.14,-2.38,-0.77
-0.16,0.99,-0.05,0.14,-2.31,-0.7
-0.16,0.99,-0.05,0.21,-2.38,-0.84
-0.16,0.99,-0.05,0,-2.31,-0.91
-0.16,0.99,-0.05,0,-2.24,-0.91
-0.16,0.99,-0.05,0.14,-2.38,-0.84
-0.16,0.99,-0.05,0.21,-2.45,-0.77
-0.16,0.99,-0.05,0.21,-2.59,-0.7
-0.16,0.99,-0.05,0.07,-2.31,-1.05
-0.16,0.99,-0.05,0.07,-2.45,-0.98
-0.16,0.99,-0.05,0.07,-2.24,-0.77
-0.16,0.99,-0.05,0.14,-2.38,-0.7
-0.15,0.99,-0.05,0,-2.31,-0.91
-0.16,0.99,-0.05,0.21,-2.38,-0.77
-0.16,0.99,-0.05,0.14,-2.38,-0.84
-0.16,0.99,-0.05,0.14,-2.45,-0.84
-0.16,0.99,-0.05,0.14,-2.45,-0.84
-0.16,0.99,-0.05,0,-2.38,-0.84
-0.16,0.99,-0.05,0,-2.45,-0.84
-0.16,0.99,-0.05,0.21,-2.38,-0.7
-0.16,0.99,-0.05,0.07,-2.24,-0.91
-0.15,0.99,-0.05,0.14,-2.38,-0.84
-0.16,0.99,-0.05,0.21,-2.38,-0.84
-0.16,0.99,-0.05,0.14,-2.52,-0.7
-0.16,0.99,-0.05,0.07,-2.38,-0.84
-0.16,0.99,-0.05,0.7,-2.66,-0.56
-0.16,0.99,-0.05,0.07,-2.31,-0.91
-0.16,0.99,-0.05,0.14,-2.38,-0.91
-0.16,0.99,-0.05,0.14,-2.45,-0.91
-0.16,0.99,-0.05,0.07,-2.24,-0.91
-0.16,0.99,-0.05,0.07,-2.45,-0.7
-0.16,0.99,-0.05,0.07,-2.38,-0.77
-0.16,0.99,-0.05,-0.07,-2.31,-0.91
-0.16,0.99,-0.05,0.07,-2.24,-0.77
-0.16,0.99,-0.05,0.14,-2.31,-0.91
-0.16,0.99,-0.05,0.21,-2.38,-0.7
-0.16,0.99,-0.05,0.07,-2.31,-0.77
-0.16,0.99,-0.05,0.21,-2.45,-0.7
-0.16,0.99,-0.05,0.21,-2.45,-0.7
-0.16,0.99,-0.05,0.42,-2.45,-0.7
-0.16,0.99,-0.05,0.28,-2.45,-0.7
-0.16,0.99,-0.05,0.14,-2.45,-0.84
-0.16,0.99,-0.05,0.35,-2.59,-0.77
-0.16,0.99,-0.05,0,-2.24,-0.98
-0.16,0.99,-0.05,0.21,-2.31,-0.91
-0.16,0.99,-0.05,0.07,-2.38,-0.84
-0.16,0.99,-0.05,0.35,-2.59,-0.7
-0.16,0.99,-0.05,0.14,-2.31,-0.91
-0.16,0.99,-0.05,0.14,-2.38,-0.77
-0.16,0.99,-0.05,0.07,-2.31,-0.84
-0.16,0.99,-0.05,0.42,-2.17,-0.91
-0.16,0.99,-0.05,0.35,-2.52,-0.7
-0.16,0.99,-0.05,0.07,-2.38,-0.77
-0.16,0.99,-0.05,0.35,-2.45,-0.84
-0.16,0.99,-0.05,0.21,-2.45,-0.91
-0.16,0.99,-0.05,0.14,-2.38,-0.98
-0.16,0.99,-0.05,0.21,-2.45,-0.91
-0.16,0.99,-0.05,0.14,-2.38,-0.84
-0.15,0.99,-0.05,0.14,-2.45,-0.84
-0.16,0.99,-0.05,0.28,-2.45,-0.7
-0.16,0.99,-0.05,0.14,-2.31,-0.91
-0.16,0.99,-0.05,0.14,-2.38,-0.84
-0.16,0.99,-0.05,0.14,-2.45,-0.84
-0.16,0.99,-0.05,0.07,-2.38,-0.98
-0.15,0.99,-0.05,0.14,-2.24,-0.98
-0.16,0.99,-0.05,0.14,-2.31,-0.77
-0.16,0.99,-0.05,0.21,-2.38,-0.77
-0.15,0.99,-0.05,0.07,-2.31,-0.91
-0.16,0.99,-0.05,-0.07,-2.31,-0.84
-0.16,0.99,-0.05,0.07,-2.45,-0.98
-0.15,0.99,-0.05,0.28,-2.38,-0.91
-0.16,0.99,-0.05,0.14,-2.24,-0.7
-0.15,0.99,-0.05,-0.07,-2.31,-0.91
-0.16,0.99,-0.05,0.07,-2.45,-0.84
-0.16,0.99,-0.05,0.14,-2.52,-0.84
-0.16,0.99,-0.05,0.35,-2.45,-0.63
-0.16,0.99,-0.05,0,-2.31,-0.98
-0.15,0.99,-0.05,0,-2.31,-0.84
-0.16,0.99,-0.05,-17.78,-2.03,-1.05
-0.15,0.99,-0.05,0.07,-2.31,-0.84
-0.16,0.99,-0.05,0.14,-2.38,-0.84
-0.16,0.99,-0.05,0.21,-2.38,-0.84
-0.16,0.99,-0.05,0.14,-2.31,-0.98
-0.16,0.99,-0.05,0.28,-2.45,-0.84
-0.16,0.99,-0.05,0.07,-2.38,-0.91
-0.16,0.99,-0.05,0.35,-2.38,-0.77
-0.16,0.99,-0.05,0.07,-2.38,-0.77
-0.16,0.99,-0.05,0.14,-2.45,-0.91
-0.16,0.99,-0.05,0.14,-2.45,-0.77
-0.16,0.99,-0.05,0.14,-2.24,-0.77
-0.16,0.99,-0.05,0,-2.38,-0.84
-0.16,0.99,-0.05,0.21,-2.52,-0.63
-0.16,0.99,-0.05,0.35,-2.52,-0.7
-0.16,0.99,-0.05,0.42,-2.45,-0.7
-0.16,0.99,-0.05,0.42,-2.45,-0.7
-0.16,0.99,-0.05,0.14,-2.45,-0.63
-0.16,0.99,-0.05,0.14,-2.24,-0.98
-0.16,0.99,-0.05,0.28,-2.31,-0.7
-0.16,0.99,-0.05,0.35,-2.31,-0.91
-0.16,0.99,-0.05,0.21,-2.38,-0.7
-0.16,0.99,-0.05,0.21,-2.45,-0.77
-0.16,0.99,-0.05,0,-2.31,-0.84
-0.16,0.99,-0.05,0,-2.31,-0.84
-0.16,0.99,-0.05,0.21,-2.45,-0.84
-0.16,0.99,-0.05,0.14,-2.24,-0.84
-0.16,0.99,-0.05,0.07,-2.31,-0.84
-0.16,0.99,-0.05,0,-2.17,-0.91
-0.16,0.99,-0.05,0.28,-2.45,-0.7
-0.16,0.99,-0.05,0.21,-2.45,-0.77
-0.16,0.99,-0.05,0.14,-2.31,-0.84
-0.16,0.99,-0.05,0.07,-2.31,-0.84
-0.16,0.99,-0.05,0.14,-2.31,-0.91
-0.16,0.99,-0.05,0.35,-2.52,-0.7
-0.16,0.99,-0.05,0.28,-2.66,-0.63
-0.16,0.99,-0.05,0.42,-2.52,-0.77
-0.16,0.99,-0.05,0.07,-2.59,-0.63
-0.15,0.99,-0.05,0.07,-2.38,-0.84
-0.16,0.99,-0.05,0.35,-2.45,-0.7
-0.16,0.99,-0.05,0.14,-2.31,-0.91
-0.16,0.99,-0.05,0.21,-2.38,-0.91
-0.16,0.99,-0.05,0.07,-2.31,-0.77
-0.16,0.99,-0.05,0.21,-2.38,-0.7
-0.16,0.99,-0.05,0.28,-2.52,-0.63
-0.16,0.99,-0.05,0.21,-2.52,-0.77
-0.16,0.99,-0.05,0.35,-2.66,-0.77
-0.16,0.99,-0.05,0.28,-2.52,-0.77
-0.16,0.99,-0.05,0.07,-2.38,-0.84
-0.16,0.99,-0.05,0.07,-2.38,-0.7
-0.16,0.99,-0.05,0.21,-2.38,-0.77
-0.16,0.99,-0.05,0.21,-2.52,-0.63
-0.16,0.99,-0.05,0.07,-2.59,-0.63
-0.16,0.99,-0.05,0.28,-2.45,-0.56
-0.16,0.99,-0.05,0.21,-2.45,-0.77
-0.16,0.99,-0.05,0,-2.38,-0.84
-0.16,0.99,-0.05,0.07,-2.45,-0.84
-0.16,0.99,-0.05,0.35,-2.45,-0.98
-0.15,0.99,-0.05,0.07,-2.31,-0.91
-0.16,0.99,-0.05,0.28,-2.38,-0.7
-0.16,0.99,-0.05,0.49,-2.52,-0.63
-0.15,0.99,-0.05,0.21,-2.24,-0.7
-0.16,0.99,-0.05,0.14,-2.38,-0.84
-0.15,0.99,-0.05,0.07,-2.31,-0.91
-0.16,0.99,-0.05,0.21,-2.38,-0.7
-0.16,0.99,-0.05,0.21,-2.31,-0.84
-0.16,0.99,-0.05,-0.07,-2.17,-0.91
-0.16,0.99,-0.05,0.07,-2.31,-0.84
-0.16,0.99,-0.05,0.14,-2.31,-0.77
-0.15,0.99,-0.05,0.21,-2.31,-0.77
-0.16,0.99,-0.05,0.42,-2.52,-0.77
-0.15,0.99,-0.05,0.14,-2.31,-0.77
-0.15,0.99,-0.05,0.21,-2.31,-0.77
-0.16,0.99,-0.05,0.28,-2.38,-0.7
-0.16,0.99,-0.05,0.07,-2.59,-0.63
-0.16,0.99,-0.05,0.21,-2.45,-0.84
-0.16,0.99,-0.05,0.14,-2.38,-0.84
-0.16,0.99,-0.05,0.21,-2.38,-0.77
-0.16,0.99,-0.05,0.07,-2.38,-0.77
-0.15,0.99,-0.05,0.14,-2.38,-0.84
-0.16,0.99,-0.05,0.07,-2.31,-0.77
-0.16,0.99,-0.05,0.14,-2.17,-0.98
-0.16,0.99,-0.05,0.07,-2.38,-0.77
-0.16,0.99,-0.05,0.21,-2.45,-0.84
-0.16,0.99,-0.05,0,-2.24,-0.91
-0.16,0.99,-0.05,-0.07,-2.24,-0.91
-0.16,0.99,-0.05,0.14,-2.45,-1.05
-0.16,0.99,-0.05,0.14,-2.38,-1.12
-0.16,0.99,-0.05,0,-2.31,-0.98
-0.16,0.99,-0.05,0,-2.38,-0.84
-0.16,0.99,-0.05,0.28,-2.38,-0.7
-0.15,0.99,-0.05,-0.21,-2.1,-0.91
-0.16,0.99,-0.05,0.14,-2.45,-0.77
-0.16,0.99,-0.05,0.14,-2.38,-0.84
-0.16,0.99,-0.05,0.14,-2.31,-0.84
-0.16,0.99,-0.05,-0.07,-2.24,-0.91
-0.16,0.99,-0.05,0.14,-2.31,-0.84
-0.16,0.99,-0.05,0.14,-2.31,-0.91
-0.16,0.99,-0.05,0.21,-2.45,-0.7
-0.15,0.99,-0.05,0.28,-2.24,-0.91
-0.16,0.99,-0.05,0.28,-2.45,-0.84
-0.16,0.99,-0.05,0.07,-2.31,-0.98
-0.16,0.99,-0.05,0.28,-2.52,-0.7
-0.16,0.99,-0.05,0.35,-2.52,-0.7
-0.16,0.99,-0.05,0.07,-2.31,-0.49
-0.16,0.99,-0.05,0.07,-2.38,-0.84
-0.16,0.99,-0.05,-0.07,-2.59,-0.63
-0.16,0.99,-0.05,0.28,-2.24,-0.98
-0.16,0.99,-0.05,0.21,-2.45,-0.77
-0.16,0.99,-0.05,0.28,-2.38,-0.77
-0.16,0.99,-0.05,0.28,-2.38,-0.77
-0.16,0.99,-0.05,0.28,-2.45,-0.91
-0.16,0.99,-0.05,0.42,-2.45,-0.7
-0.16,0.99,-0.05,0.28,-2.38,-0.84
-0.16,0.99,-0.05,0.49,-2.17,-0.7
-0.16,0.99,-0.05,0.21,-2.31,-0.84
-0.16,0.99,-0.05,0.14,-2.38,-0.91
-0.16,0.99,-0.05,0.07,-2.45,-0.84
-0.16,0.99,-0.05,0.07,-2.52,-0.7
-0.16,0.99,-0.05,0.07,-2.59,-0.91
-0.16,0.99,-0.05,0.21,-2.52,-0.77
-0.16,0.99,-0.05,0.07,-2.38,-0.84
-0.16,0.99,-0.05,0,-2.38,-0.91
-0.16,0.99,-0.05,0,-2.45,-0.84
-0.16,0.99,-0.05,0.49,-2.45,-0.77
-0.16,0.99,-0.05,0.21,-2.38,-0.84
-0.16,0.99,-0.05,0.14,-2.24,-0.91
-0.16,0.99,-0.05,0.14,-2.1,-1.05
-0.16,0.99,-0.05,0.35,-2.45,-0.7
-0.16,0.99,-0.05,0.28,-2.45,-0.77
-0.16,0.99,-0.05,0.21,-2.31,-0.77
-0.16,0.99,-0.05,-0.14,-2.24,-0.91
-0.16,0.99,-0.05,-0.07,-2.24,-0.7
-0.16,0.99,-0.05,0.07,-2.17,-1.05
-0.16,0.99,-0.05,-17.85,-2.17,-0.91
-0.16,0.99,-0.05,0.14,-2.45,-0.77
-0.15,0.99,-0.05,0.28,-2.45,-0.77
-0.15,0.99,-0.05,0,-2.24,-0.91
-0.16,0.99,-0.05,0.21,-2.38,-0.7
-0.16,0.99,-0.05,0.07,-2.31,-0.84
-0.16,0.99,-0.05,0.21,-2.38,-0.77
-0.16,0.99,-0.05,0.28,-2.31,-0.77
-0.16,0.99,-0.05,0.28,-2.38,-0.77
-0.16,0.99,-0.05,0.42,-2.45,-0.84
-0.16,0.99,-0.05,0.35,-2.59,-0.7
-0.16,0.99,-0.05,0.14,-2.38,-0.84
-0.16,0.99,-0.05,0.28,-2.52,-0.77
-0.16,0.99,-0.05,0.28,-2.52,-0.7
-0.16,0.99,-0.05,0.28,-2.38,-0.77
-0.15,0.99,-0.05,0.07,-2.45,-0.91
-0.15,0.99,-0.05,0.07,-2.52,-0.56
-0.16,0.99,-0.05,0.07,-2.24,-0.77
-0.16,0.99,-0.05,0,-2.31,-0.84
-0.16,0.99,-0.05,0.14,-2.38,-0.7
-0.15,0.99,-0.05,0.49,-2.45,-0.7
-0.16,0.99,-0.05,0.21,-2.45,-0.7
-0.16,0.99,-0.05,0.28,-2.45,-0.7
-0.16,0.99,-0.05,0.21,-2.45,-0.7
-0.16,0.99,-0.05,-17.64,-2.31,-0.98
-0.16,0.99,-0.05,0.14,-2.38,-0.84
-0.16,0.99,-0.05,0.35,-2.52,-0.63
-0.16,0.99,-0.05,0.49,-2.59,-0.7
-0.15,0.99,-0.05,0.14,-2.31,-0.84
-0.16,0.99,-0.05,0.14,-2.38,-0.77
-0.15,0.99,-0.05,0.14,-2.1,-1.05
-0.16,0.99,-0.05,0.21,-2.38,-0.77
-0.16,0.99,-0.05,0.07,-2.17,-0.84
-0.15,0.99,-0.05,0.14,-2.24,-0.77
-0.16,0.99,-0.05,0.07,-2.31,-0.91
-0.15,0.99,-0.05,0.07,-2.31,-0.91
-0.16,0.99,-0.05,0.14,-2.38,-0.84
-0.16,0.99,-0.05,0,-2.31,-0.77
-0.16,0.99,-0.05,-0.21,-2.03,-0.91
-0.16,0.99,-0.05,0.14,-2.31,-0.84
-0.16,0.99,-0.05,0.07,-2.45,-0.84
-0.16,0.99,-0.05,0.14,-2.31,-0.98
-0.16,0.99,-0.05,0.14,-2.38,-0.77
-0.15,0.99,-0.05,0.21,-2.38,-0.77
-0.16,0.99,-0.05,0.14,-2.38,-0.84
-0.16,0.99,-0.05,0.21,-2.38,-0.77
-0.16,0.99,-0.05,0.07,-2.38,-0.84
-0.16,0.99,-0.05,0.28,-2.31,-0.84
-0.16,0.99,-0.05,0.35,-2.45,-0.77
-0.15,0.99,-0.05,0.14,-2.24,-0.84
-0.16,0.99,-0.05,0.07,-2.31,-0.98
-0.16,0.99,-0.05,0.21,-2.38,-0.91
-0.16,0.99,-0.05,-17.92,-2.31,-0.98
-0.16,0.99,-0.05,0.14,-2.52,-0.84
-0.16,0.99,-0.05,-0.21,-2.24,-0.91
-0.16,0.99,-0.05,0.14,-2.38,-0.84
-0.16,0.99,-0.05,0.14,-2.45,-0.84
-0.15,0.99,-0.05,0,-2.45,-0.7
-0.16,0.99,-0.05,0.28,-2.66,-0.63
-0.16,0.99,-0.05,0.28,-2.31,-0.77
-0.15,0.99,-0.05,0,-2.24,-0.98
-0.15,0.99,-0.05,0.35,-2.52,-0.7
-0.16,0.99,-0.05,0.14,-2.38,-0.91
-0.16,0.99,-0.05,0.14,-2.38,-0.7
-0.16,0.99,-0.05,0.21,-2.38,-0.77
-0.16,0.99,-0.05,0.21,-2.52,-0.7
-0.16,0.99,-0.05,0.07,-2.38,-0.77
-0.16,0.99,-0.05,0.14,-2.52,-0.91
-0.16,0.99,-0.05,0.14,-2.24,-0.91
-0.16,0.99,-0.05,0,-2.45,-0.84
-0.16,0.99,-0.05,0,-2.38,-0.84
-0.16,0.99,-0.05,0.07,-2.38,-0.7
-0.16,0.99,-0.05,0.28,-2.38,-0.7
-0.16,0.99,-0.05,-0.07,-2.24,-0.91
-0.16,0.99,-0.05,0.14,-2.38,-0.84
-0.16,0.99,-0.05,0,-2.45,-0.77
-0.16,0.99,-0.05,-17.85,-2.24,-0.91
-0.16,0.99,-0.05,0.28,-2.52,-0.84
-0.16,0.99,-0.05,0.21,-2.31,-0.84
-0.16,0.99,-0.05,0.14,-2.38,-0.84
-0.16,0.99,-0.05,0,-2.31,-0.77
-0.15,0.99,-0.05,-0.07,-2.31,-0.7
-0.16,0.99,-0.05,0.07,-2.38,-0.77
-0.16,0.99,-0.05,0.28,-2.31,-0.77
-0.16,0.99,-0.05,0.21,-2.45,-0.7
-0.16,0.99,-0.05,0.07,-2.24,-0.84
-0.16,0.99,-0.05,0.07,-2.31,-0.91
-0.16,0.99,-0.05,0.21,-2.38,-0.84
-0.16,0.99,-0.05,0.07,-2.38,-0.98
-0.16,0.99,-0.05,0.07,-2.31,-0.98
-0.16,0.99,-0.05,0.14,-2.24,-0.91
-0.16,0.99,-0.05,0.14,-2.38,-0.84
-0.16,0.99,-0.05,0.14,-2.52,-0.91
-0.16,0.99,-0.05,0.14,-2.45,-0.77
-0.16,0.99,-0.05,0,-2.24,-0.84
-0.16,0.99,-0.05,0,-2.45,-0.77
-0.16,0.99,-0.05,-0.07,-2.59,-0.63
-0.16,0.99,-0.05,-0.07,-2.24,-0.84
-0.16,0.99,-0.05,0.07,-2.38,-0.84
-0.16,0.99,-0.05,0,-2.24,-0.91
-0.15,0.99,-0.05,0.14,-2.31,-0.84
-0.16,0.99,-0.05,0.21,-2.38,-0.63
-0.16,0.99,-0.05,0.14,-2.31,-0.84
-0.16,0.99,-0.05,0,-2.17,-0.84
-0.16,0.99,-0.05,0.28,-2.45,-0.84
-0.16,0.99,-0.05,0.14,-2.45,-0.84
-0.16,0.99,-0.05,0,-2.45,-0.84
-0.16,0.99,-0.05,0.07,-2.45,-0.7
-0.16,0.99,-0.05,0,-2.38,-0.91
-0.16,0.99,-0.05,0.28,-2.31,-0.91
-0.16,0.99,-0.04,-0.14,-2.17,-0.91
-0.16,0.99,-0.05,0.07,-2.38,-0.91
-0.16,0.99,-0.05,0,-2.24,-0.84
-0.15,0.99,-0.05,0,-2.31,-0.91
-0.16,0.99,-0.05,0.21,-2.52,-0.91
-0.16,0.99,-0.05,0,-2.24,-0.91
-0.15,0.99,-0.05,0.28,-2.24,-0.77
-0.16,0.99,-0.05,0.14,-2.17,-0.91
-0.16,0.99,-0.05,-0.07,-2.17,-0.98
-0.16,0.99,-0.05,0.07,-2.24,-0.84
-0.16,0.99,-0.05,0.14,-2.45,-0.84
-0.16,0.99,-0.05,0.14,-2.52,-0.98
-0.16,0.99,-0.05,0.14,-2.52,-0.7
-0.16,0.99,-0.05,0.14,-2.52,-0.77
-0.16,0.99,-0.05,0.28,-2.52,-0.77
-0.16,0.99,-0.05,-0.07,-2.31,-0.98
-0.16,0.99,-0.05,0,-2.45,-0.84
-0.16,0.99,-0.05,-0.07,-2.31,-0.98
-0.16,0.99,-0.05,0.28,-2.45,-0.77
-0.16,0.99,-0.05,0,-2.24,-0.91
-0.16,0.99,-0.05,0.35,-2.45,-0.77
-0.15,0.99,-0.05,0.28,-2.31,-0.77
-0.15,0.99,-0.05,0.28,-2.38,-0.84
-0.16,0.99,-0.05,0.14,-2.31,-1.05
-0.16,0.99,-0.05,0.35,-2.52,-0.7
-0.16,0.99,-0.05,0.14,-2.03,-1.05
-0.16,0.99,-0.05,0,-2.24,-0.77
-0.16,0.99,-0.05,0.35,-2.38,-0.84
-0.16,0.99,-0.05,0.07,-2.38,-0.77
-0.16,0.99,-0.05,0,-2.31,-0.84
-0.16,0.99,-0.05,0.28,-2.52,-0.7
-0.16,0.99,-0.05,-0.07,-2.31,-0.98
-0.16,0.99,-0.05,-0.07,-2.31,-0.63
-0.16,0.99,-0.05,0,-2.45,-0.7
-0.16,0.99,-0.05,0.14,-2.31,-0.84
-0.16,0.99,-0.05,0.21,-2.38,-0.84
-0.16,0.99,-0.05,0.28,-2.45,-0.7
-0.15,0.99,-0.05,0.14,-2.31,-0.77
-0.16,0.99,-0.05,0.14,-2.31,-0.7
-0.16,0.99,-0.05,0.07,-2.38,-0.84
-0.15,0.99,-0.05,0.07,-2.31,-0.91
-0.16,0.99,-0.05,0.21,-2.38,-0.77
