Accel_x,Accel_y,Accel_z,Gyr_x,Gyr_y,Gyr_z
-1.01,-0.15,-0.39,28.7,-12.32,-94.78
-0.79,-0.24,-0.38,19.04,-18.13,-92.19
-0.73,-0.38,-0.37,20.51,-17.64,-87.71
-0.78,-0.39,-0.31,24.43,-14.7,-84.91
-0.84,-0.34,-0.25,11.69,-16.38,-81.55
-0.79,-0.33,-0.15,11.48,-12.25,-78.26
-0.83,-0.25,-0.11,8.12,-7.14,-74.76
-0.85,-0.22,-0.07,8.54,-1.68,-74.13
-0.94,-0.19,-0.07,13.93,9.17,-73.99
-0.96,-0.26,-0.07,19.95,13.37,-71.75
-0.99,-0.22,-0.06,42.21,22.96,-73.08
-1.03,-0.21,-0.1,48.65,20.65,-72.87
-1.03,-0.2,-0.15,47.46,18.27,-72.1
-0.99,-0.17,-0.2,43.75,18.06,-71.89
-0.98,-0.13,-0.22,39.76,18.41,-72.87
-0.95,-0.11,-0.21,35.56,16.24,-73.01
-0.91,-0.07,-0.18,28.7,13.3,-73.08
-0.88,-0.05,-0.18,23.8,11.69,-73.15
-0.87,-0.05,-0.18,19.6,11.69,-73.5
-0.91,-0.09,-0.24,15.47,12.04,-74.48
-0.99,-0.15,-0.33,13.02,11.55,-75.46
-1.06,-0.15,-0.38,10.43,7.35,-75.11
-1.12,-0.12,-0.4,8.54,3.57,-73.71
-1.13,-0.06,-0.36,6.37,0,-71.82
-1.14,0,-0.32,-0.14,-3.15,-69.3
-1.17,-0.01,-0.31,-7.35,-6.02,-68.18
-1.19,-0.04,-0.3,-16.45,-13.58,-65.31
-1.22,-0.03,-0.27,-31.43,-23.24,-59.43
-1.25,-0.02,-0.22,-50.4,-32.76,-50.19
-1.23,-0.03,-0.14,-57.96,-35.07,-43.82
-1.24,-0.01,0.03,-42.14,-43.19,-39.13
-1.2,-0.08,0.15,-24.01,-47.46,-29.47
-1.22,-0.16,0.14,-0.07,-42.63,-18.2
-1.37,-0.14,0.09,22.61,-38.78,-4.9
-1.53,0.02,0.06,42.7,-39.48,9.66
-1.6,0.28,0.02,59.01,-50.12,25.41
-1.62,0.49,0.04,66.85,-63.42,41.44
-1.62,0.69,0.14,73.78,-73.5,57.96
-1.57,0.85,0.19,76.02,-75.32,71.19
-1.52,0.81,-0.04,58.38,-71.61,83.02
-1.41,0.62,-0.36,28,-68.81,97.44
-1.24,0.42,-0.63,-24.85,-71.68,102.34
-1.07,0.2,-0.59,-54.11,-73.85,110.53
-0.91,-0.16,-0.45,-86.1,-64.89,123.55
-0.89,-0.55,-0.49,-94.15,-52.5,132.09
-0.92,-0.91,-0.68,-88.76,-36.89,139.72
-1.18,-1.12,-0.75,-78.96,-26.18,145.6
-1.32,-1.05,-0.75,-62.16,-12.04,147.28
-1.73,-1.13,-0.7,-58.1,-24.78,137.83
-1.74,-1.22,-0.63,-47.95,-34.37,126.63
-1.51,-1.04,-0.61,-20.02,-34.37,125.79
-1.15,-0.88,-0.65,-1.47,-37.45,135.52
-1.08,-0.64,-0.53,0.35,-38.5,144.13
-1.08,-0.55,-0.3,-9.87,-45.43,142.94
-0.9,-0.6,-0.13,-17.57,-46.27,143.08
-0.74,-0.6,-0.12,-25.27,-35.35,143.08
-0.72,-0.58,-0.18,-37.31,-31.99,141.47
-0.69,-0.57,-0.21,-46.83,-33.81,140.49
-0.66,-0.54,-0.1,-59.5,-38.43,138.25
-0.64,-0.55,-0.08,-71.61,-40.46,134.61
-0.63,-0.54,-0.09,-81.2,-38.57,123.06
-0.64,-0.58,-0.15,-86.31,-37.66,111.86
-0.63,-0.59,-0.2,-93.24,-42.42,99.61
-0.58,-0.62,-0.22,-96.53,-45.29,88.13
-0.55,-0.61,-0.19,-100.73,-43.68,75.11
-0.51,-0.65,-0.19,-105.21,-41.86,60.48
-0.4,-0.72,-0.22,-108.01,-40.11,48.86
-0.29,-0.76,-0.24,-103.81,-32.76,41.51
-0.25,-0.75,-0.26,-98.7,-21.35,32.48
-0.25,-0.82,-0.28,-93.66,-17.15,25.13
-0.28,-0.88,-0.26,-78.82,-16.24,17.22
-0.32,-0.94,-0.19,-64.68,-17.92,8.4
-0.35,-0.97,-0.02,-53.41,-13.16,-1.96
-0.48,-1.03,0.13,-34.93,-5.74,-12.11
-0.57,-0.79,0.07,-12.18,5.88,-12.11
-0.7,-0.5,-0.01,-0.42,22.61,-5.11
-0.88,-0.09,0.11,12.53,35.35,14
-1.21,0.36,0.34,6.86,44.87,38.5
-1.49,0.61,0.54,7.07,45.08,45.08
-1.63,0.81,0.13,4.34,15.47,32.9
-1.47,1.32,0.42,4.48,-3.85,17.85
-1.58,1.94,0.55,30.59,9.38,17.85
-2.01,2.44,0.53,50.82,8.89,25.27
-1.88,1.99,0.44,43.47,-0.49,22.54
-1.49,1.15,0.13,17.43,-5.46,22.89
-1.21,0.58,0.01,-13.72,-10.71,17.01
-0.95,0.12,-0.09,-40.11,-7.42,5.04
-0.69,-0.3,-0.22,-62.3,3.92,-13.09
-0.43,-0.61,-0.35,-66.08,21.07,-42.42
-0.31,-0.74,-0.3,-61.04,39.06,-76.44
-0.65,-0.64,-0.14,-52.15,54.46,-87.5
-1.3,-0.38,0.32,-40.81,34.51,-70.21
-1.72,-0.11,0.44,-32.13,8.05,-34.16
-1.67,0.17,0.22,-8.82,18.34,-14.07
-1.4,0.03,0.11,10.36,45.92,-36.26
-1.34,-0.03,0.12,36.47,94.71,-71.75
-1.3,-0.21,0.04,62.16,118.58,-80.29
-1.23,-0.99,-0.32,136.71,125.23,-34.3
-1.07,-1.2,-0.52,189.35,106.82,-4.97
-0.45,-1.48,-0.42,172.9,56.35,-40.88
-0.07,-1.93,-0.25,141.26,55.16,-79.66
-0.09,-1.92,-0.34,82.74,75.11,-82.46
-0.42,-1.01,-0.64,75.95,66.36,-67.2
-0.71,-0.56,-0.64,83.44,41.86,-69.3
-0.85,-0.34,-0.53,66.29,49.63,-65.31
-1.04,-0.24,-0.55,37.52,50.75,-65.24
-1.14,-0.23,-0.57,14.63,47.18,-64.19
-1.13,-0.19,-0.6,-7.42,41.93,-62.79
-1.13,-0.27,-0.64,-7.35,28.56,-65.94
-1.17,-0.23,-0.6,3.36,14,-78.4
-1.12,-0.25,-0.5,23.38,5.18,-86.45
-1.02,-0.19,-0.4,33.11,-0.42,-94.5
-0.98,-0.19,-0.39,36.19,-9.66,-100.03
-0.99,-0.16,-0.41,36.12,-14.42,-104.37
-0.91,-0.17,-0.4,34.93,-17.85,-102.9
-0.8,-0.23,-0.36,38.43,-19.46,-100.31
-0.75,-0.19,-0.26,30.45,-18.76,-95.27
-0.72,-0.17,-0.14,15.75,-16.31,-89.67
-0.79,-0.2,-0.08,4.69,-7.7,-86.03
-0.88,-0.13,-0.07,-5.67,-4.69,-84.7
-0.91,-0.24,0.04,-9.31,3.08,-78.47
-0.99,-0.19,0.1,18.13,19.32,-76.51
-1.07,-0.2,0.05,33.39,20.23,-74.06
-1.05,-0.16,0.01,46.48,18.48,-71.33
-0.99,-0.08,-0.11,48.37,23.1,-67.62
-0.98,-0.01,-0.22,48.23,25.34,-66.85
-0.97,0.02,-0.27,43.12,22.19,-66.71
-0.92,0,-0.27,32.41,20.86,-68.53
-0.92,-0.05,-0.26,21.77,20.79,-72.31
-0.95,-0.18,-0.28,13.86,19.67,-76.51
-0.99,-0.29,-0.31,7.84,15.05,-80.5
-1.01,-0.27,-0.33,0.84,9.8,-81.83
-1,-0.2,-0.35,-2.52,3.57,-80.85
-1,-0.11,-0.33,-5.11,-0.42,-78.05
-1.03,0,-0.3,-5.46,-1.75,-73.92
-1.09,0.06,-0.27,-7.21,-2.73,-71.12
-1.16,0.04,-0.26,-10.15,-5.74,-67.62
-1.21,-0.05,-0.26,-16.87,-9.38,-63.21
-1.24,-0.12,-0.24,-26.46,-13.02,-56.21
-1.28,-0.14,-0.15,-33.74,-18.62,-48.02
-1.28,-0.13,-0.03,-30.52,-24.64,-40.81
-1.27,-0.08,0.05,-16.52,-28,-31.43
-1.28,-0.02,0.06,6.65,-32.27,-24.22
-1.26,0.01,0,19.6,-35,-14.07
-1.34,0.04,-0.06,25.34,-37.52,-2.45
-1.49,0.14,-0.06,24.08,-42.14,11.55
-1.74,0.28,-0.06,24.29,-55.37,24.43
-1.67,0.47,-0.03,29.26,-67.97,41.44
-1.71,0.65,0.02,39.41,-78.68,62.65
-1.7,0.77,0.08,43.96,-86.31,79.1
-1.38,0.73,-0.08,31.43,-77.49,88.97
-1.23,0.43,-0.35,-2.87,-71.54,96.32
-1,0.16,-0.5,-44.38,-66.5,106.19
-0.86,-0.17,-0.43,-61.88,-60.69,113.75
-0.8,-0.41,-0.3,-66.85,-54.6,121.38
-0.83,-0.7,-0.29,-55.37,-45.85,130.34
-0.94,-0.88,-0.44,-49.63,-33.25,133.91
-1.15,-0.95,-0.49,-43.05,-10.08,136.36
-1.52,-0.93,-0.59,-37.1,-19.04,130.13
-1.64,-1.09,-0.54,-36.89,-33.11,123.06
-1.56,-1.14,-0.52,-21.7,-35.21,117.46
-1.33,-0.96,-0.46,-7.56,-32.41,119.7
-1.12,-0.66,-0.49,-15.96,-34.02,132.02
-0.98,-0.58,-0.46,-10.29,-32.13,140.42
-0.95,-0.61,-0.43,-4.34,-40.95,142.94
-0.86,-0.61,-0.35,-8.05,-49.07,146.44
-0.74,-0.59,-0.21,-15.82,-46.06,147.7
-0.71,-0.54,-0.16,-24.29,-40.11,145.39
-0.73,-0.49,-0.2,-33.74,-37.38,141.96
-0.71,-0.45,-0.19,-43.54,-38.5,136.92
-0.66,-0.44,-0.15,-57.82,-36.4,130.69
-0.67,-0.42,-0.15,-63.98,-32.97,120.47
-0.72,-0.42,-0.2,-76.65,-31.5,111.16
-0.73,-0.45,-0.2,-85.05,-33.32,100.59
-0.69,-0.51,-0.2,-89.88,-36.54,90.79
-0.66,-0.55,-0.19,-91.91,-35.98,78.47
-0.62,-0.62,-0.18,-93.45,-35.7,67.97
-0.55,-0.67,-0.19,-96.74,-35.91,57.75
-0.44,-0.72,-0.2,-98.42,-33.04,49
-0.35,-0.78,-0.2,-96.11,-25.41,39.97
-0.3,-0.81,-0.21,-93.03,-17.92,29.26
-0.26,-0.83,-0.2,-83.93,-12.67,19.39
-0.24,-0.82,-0.18,-72.45,-7.7,7.42
-0.25,-0.81,-0.08,-61.25,-3.29,0.21
-0.35,-0.85,0.06,-48.3,8.89,-3.5
-0.49,-0.75,0.01,-18.62,21.91,-3.85
-0.64,-0.55,-0.12,-5.25,33.18,-3.57
-0.78,-0.35,-0.03,6.44,42.28,0.84
-0.92,0,0.03,9.38,53.55,9.87
-1.18,0.42,0.19,0.77,57.05,27.44
-1.39,0.72,0.46,-11.83,44.31,27.93
-1.65,1.11,0.34,-20.23,12.11,16.38
-1.65,1.48,0.47,-7.7,3.5,13.16
-1.93,2.08,0.62,21.56,4.69,26.53
-2.04,2.24,0.5,35.63,-2.45,19.11
-1.74,1.57,0.18,16.1,-3.71,13.44
-1.46,0.77,0,-13.86,-7.14,9.59
-1.08,0.23,-0.12,-35.98,-8.47,4.27
-0.78,-0.12,-0.24,-55.09,3.64,-5.95
-0.58,-0.39,-0.34,-71.33,18.97,-26.88
-0.37,-0.66,-0.26,-69.79,36.12,-58.45
-0.32,-0.73,-0.25,-61.18,55.37,-84.49
-0.77,-0.52,0.04,-47.53,56,-83.58
-1.3,-0.36,0.34,-42.14,31.85,-64.82
-1.6,-0.24,0.45,-26.88,12.46,-43.4
-1.45,-0.2,0.26,-9.38,26.88,-41.65
-1.34,-0.16,0.16,10.15,61.32,-64.54
-1.4,-0.08,0.1,26.6,97.16,-85.05
-1.58,-0.26,-0.14,61.53,133.14,-83.93
-1.65,-0.86,-0.48,135.1,146.02,-28.98
-1.24,-0.94,-0.74,166.67,95.97,-13.58
-0.39,-1.5,-0.7,181.65,54.95,-46.9
-0.12,-1.79,-0.44,163.17,58.31,-84.63
-0.06,-1.69,-0.34,108.22,61.04,-90.16
-0.17,-1.18,-0.39,78.05,52.5,-73.85
-0.41,-0.64,-0.45,62.23,45.15,-73.78
-0.72,-0.44,-0.5,49.77,46.62,-71.61
-0.93,-0.28,-0.51,25.48,41.65,-70.42
-1.09,-0.22,-0.52,-0.56,40.04,-68.53
-1.1,-0.21,-0.55,-17.15,35.56,-66.08
-1.11,-0.2,-0.59,-14.63,24.78,-65.59
-1.14,-0.21,-0.52,5.88,18.55,-67.9
-1.13,-0.13,-0.42,19.6,11.62,-75.74
-1.07,-0.17,-0.36,36.12,10.29,-84.35
-0.98,-0.14,-0.31,53.41,5.74,-87.78
-1.02,-0.19,-0.41,48.37,-3.57,-91.42
-0.98,-0.26,-0.48,62.02,-8.26,-91.63
-0.9,-0.16,-0.36,54.39,-15.75,-87.78
-0.82,-0.18,-0.3,43.54,-19.39,-84
-0.86,-0.14,-0.23,39.83,-16.03,-77.42
-0.84,-0.07,-0.11,24.15,-12.88,-69.02
-0.88,-0.1,-0.02,1.05,-3.15,-62.79
-0.86,-0.09,0.1,25.48,22.33,-57.75
-0.99,-0.07,0.11,39.69,28.49,-52.64
-1.07,-0.14,0,50.19,26.74,-48.58
-1.04,-0.13,-0.1,58.1,31.78,-50.12
-1.02,-0.13,-0.23,55.65,31.36,-52.57
-0.88,-0.12,-0.34,45.15,24.22,-53.27
-0.95,-0.12,-0.35,34.02,18.34,-55.23
-0.9,-0.13,-0.3,24.01,15.89,-57.82
-0.87,-0.16,-0.24,19.04,14.56,-60.27
-0.85,-0.22,-0.25,14.91,13.93,-61.95
-0.84,-0.3,-0.29,10.92,15.61,-64.54
-0.87,-0.38,-0.34,7.77,16.73,-67.34
-0.91,-0.41,-0.35,6.23,14.42,-68.88
-0.95,-0.37,-0.32,6.23,11.34,-69.65
-0.98,-0.29,-0.27,8.05,7.91,-68.81
-1.01,-0.18,-0.2,9.66,6.72,-66.57
-1.04,-0.08,-0.18,10.15,6.37,-63.56
-1.06,-0.01,-0.19,9.73,5.6,-59.22
-1.09,-0.05,-0.23,8.05,4.62,-56.28
-1.15,-0.11,-0.26,3.36,0.77,-51.8
-1.22,-0.13,-0.24,-8.4,-4.13,-45.5
-1.25,-0.14,-0.21,-11.62,-11.69,-38.92
-1.22,-0.14,-0.13,-5.74,-18.9,-32.97
-1.2,-0.13,-0.08,3.15,-25.97,-26.46
-1.15,-0.13,-0.06,11.55,-30.94,-18.2
-1.16,-0.08,-0.04,14.7,-31.43,-7.14
-1.23,0.06,0.01,19.74,-31.71,6.02
-1.35,0.16,0.1,30.38,-33.25,17.64
-1.45,0.3,0.19,56.56,-38.08,31.92
-1.51,0.46,0.22,74.2,-46.55,48.3
-1.56,0.6,0.16,81.41,-57.05,61.74
-1.62,0.66,0.14,78.75,-65.8,78.26
-1.56,0.65,-0.02,69.16,-67.48,89.46
-1.46,0.52,-0.25,44.87,-64.47,101.15
-1.25,0.42,-0.45,3.99,-60.48,109.69
-1.16,0.18,-0.52,-52.92,-60.9,120.96
-1.07,-0.16,-0.27,-64.68,-50.26,124.11
-1.07,-0.52,-0.33,-75.32,-35.42,131.46
-1.05,-0.99,-0.43,-69.3,-28.07,136.57
-1.15,-1.14,-0.48,-50.75,-18.27,140.77
-1.42,-1.18,-0.57,-31.99,-16.8,138.11
-1.55,-1.23,-0.68,-27.72,-38.29,133.98
-1.46,-1.24,-0.63,-13.44,-43.47,124.6
-1.32,-1.17,-0.54,-3.92,-39.76,116.9
-1.11,-0.9,-0.44,1.4,-40.18,121.73
-1.01,-0.63,-0.42,14.77,-39.06,131.39
-1.16,-0.46,-0.25,26.67,-40.04,129.29
-1.03,-0.49,-0.08,20.58,-37.94,127.61
-0.83,-0.61,-0.09,6.16,-32.06,131.74
-0.76,-0.64,-0.13,-3.43,-29.89,136.57
-0.77,-0.63,-0.12,-11.48,-30.73,137.9
-0.73,-0.66,-0.1,-14.7,-34.37,136.5
-0.68,-0.62,-0.04,-20.65,-37.24,134.75
-0.64,-0.61,-0.01,-24.43,-36.68,128.1
-0.61,-0.6,-0.02,-27.86,-33.18,117.39
-0.6,-0.55,-0.07,-41.93,-33.39,105
-0.56,-0.58,-0.16,-47.32,-34.86,93.1
-0.52,-0.54,-0.22,-55.02,-37.59,79.03
-0.46,-0.53,-0.2,-66.57,-36.19,61.95
-0.39,-0.55,-0.2,-73.78,-31.5,49.77
-0.29,-0.56,-0.23,-77.42,-22.33,38.08
-0.24,-0.62,-0.27,-77.21,-13.58,27.44
-0.21,-0.65,-0.28,-79.94,-8.82,18.13
-0.19,-0.69,-0.28,-73.43,-3.08,11.76
-0.2,-0.74,-0.27,-57.47,1.05,10.57
-0.25,-0.76,-0.19,-39.97,0.84,3.5
-0.33,-0.77,-0.12,-23.38,6.37,0.98
-0.57,-0.73,0.01,-4.06,19.67,2.66
-0.73,-0.54,-0.01,9.73,28.98,3.85
-0.88,-0.21,-0.09,7.56,38.01,15.82
-1.16,0.27,0.13,-4.62,42.35,37.8
-1.45,0.61,0.44,-18.27,39.34,47.25
-1.66,0.96,0.23,-22.19,8.96,33.53
-1.57,1.24,0.48,-13.23,-7.42,22.61
-1.69,1.88,0.64,20.86,4.69,23.94
-2,2.43,0.58,49,5.6,20.72
-1.87,2.11,0.42,33.67,4.76,10.36
-1.51,1.31,0.08,8.12,-0.07,13.51
-1.24,0.56,0,-17.5,-3.85,11.69
-0.97,-0.01,-0.11,-38.71,-2.38,4.2
-0.63,-0.35,-0.19,-57.47,13.09,-15.54
-0.46,-0.66,-0.27,-66.15,27.37,-47.88
-0.39,-0.76,-0.21,-66.57,49,-79.73
-0.88,-0.6,0,-50.4,58.24,-81.97
-1.49,-0.3,0.35,-41.02,31.43,-60.55
-1.76,-0.08,0.41,-48.79,5.95,-25.2
-1.62,-0.07,0.25,-27.02,30.45,-19.6
-1.31,-0.11,0.16,-5.81,51.73,-43.19
-1.29,-0.05,0.1,23.59,90.44,-74.41
-1.32,-0.18,-0.02,49.91,119.35,-80.99
-1.31,-0.73,-0.4,103.53,136.64,-38.01
-0.87,-0.97,-0.82,174.02,86.8,-4.41
-0.26,-1.25,-0.54,169.68,60.69,-34.37
0.06,-1.83,-0.47,154.91,68.32,-75.95
-0.02,-1.97,-0.54,109.13,74.9,-87.15
-0.38,-1.27,-0.64,69.16,51.38,-67.76
-0.52,-0.69,-0.42,65.45,37.94,-63.84
-0.86,-0.39,-0.38,50.47,51.38,-56.49
-1.14,-0.26,-0.49,21,42.21,-55.23
-1.2,-0.28,-0.52,3.92,37.17,-54.74
-1.17,-0.2,-0.57,-3.15,37.03,-57.33
-1.01,-0.15,-0.66,-6.65,27.86,-62.79
-1.07,-0.18,-0.68,13.93,21.77,-68.46
-1.06,-0.17,-0.58,31.29,19.67,-79.17
-1.01,-0.23,-0.46,38.78,13.44,-88.2
-0.95,-0.2,-0.39,41.93,-0.7,-93.31
-0.96,-0.22,-0.42,35.21,-9.45,-96.53
-0.93,-0.26,-0.44,31.99,-10.85,-98.28
-0.77,-0.36,-0.44,55.3,-9.17,-95.97
-0.74,-0.26,-0.24,40.88,-8.75,-90.58
-0.77,-0.25,-0.21,24.01,-10.92,-82.74
-0.78,-0.3,-0.17,22.12,-6.93,-78.26
-0.86,-0.25,-0.09,20.44,3.5,-74.76
-0.96,-0.17,-0.1,12.88,1.05,-73.57
-0.91,-0.25,0.02,29.19,20.65,-67.62
-1.02,-0.17,0.06,50.12,29.68,-65.59
-1.1,-0.1,0.01,58.66,23.52,-63.56
-1.07,-0.02,-0.03,63.28,21.21,-60.55
-1,0.04,-0.17,59.01,24.29,-59.08
-0.98,0.08,-0.25,49.7,24.78,-59.5
-0.94,0.06,-0.31,29.54,22.19,-60.06
-0.91,-0.06,-0.31,19.81,19.74,-62.3
-0.9,-0.19,-0.3,15.05,17.99,-65.94
-0.9,-0.3,-0.28,13.79,16.38,-69.93
-0.92,-0.35,-0.3,13.51,15.54,-72.17
-0.96,-0.33,-0.33,13.93,12.39,-72.45
-1.01,-0.26,-0.36,13.79,7.14,-70.84
-1.03,-0.18,-0.35,14.63,6.16,-68.25
-1.06,-0.1,-0.31,16.59,6.65,-65.03
-1.08,-0.03,-0.26,16.24,5.67,-61.53
-1.09,-0.01,-0.24,14.14,4.69,-58.31
-1.13,-0.07,-0.25,11.34,3.36,-56.42
-1.22,-0.14,-0.27,6.65,-3.01,-53.83
-1.27,-0.16,-0.24,-1.82,-8.4,-48.23
-1.28,-0.16,-0.22,-5.18,-14.28,-42.63
-1.24,-0.14,-0.13,-0.77,-19.95,-38.08
-1.19,-0.12,-0.1,7.35,-26.95,-34.72
-1.11,-0.19,-0.11,11.62,-33.11,-27.79
-1.08,-0.19,-0.13,12.25,-33.74,-18.9
-1.18,-0.09,-0.11,7.77,-33.25,-9.17
-1.3,0.03,-0.03,7.28,-36.33,0.42
-1.42,0.16,0.1,19.32,-42.28,14.14
-1.51,0.34,0.3,42.91,-52.78,29.26
-1.51,0.51,0.38,67.97,-61.39,44.73
-1.47,0.66,0.3,86.45,-60.9,60.83
-1.47,0.69,0.18,87.01,-56.35,73.29
-1.45,0.63,-0.05,75.74,-56,81.83
-1.32,0.51,-0.24,40.67,-58.17,95.41
-1.24,0.36,-0.41,-6.16,-56.49,106.05
-1.19,0.15,-0.48,-46.62,-61.6,116.9
-1.09,-0.18,-0.34,-62.58,-53.83,123.27
-1.03,-0.62,-0.34,-75.6,-38.43,129.08
-1.01,-0.94,-0.46,-70.84,-20.37,132.44
-1.16,-1.09,-0.51,-44.03,-15.96,139.09
-1.28,-1.03,-0.58,-28,-19.11,140.63
-1.51,-1.1,-0.67,-23.87,-34.86,133
-1.5,-1.21,-0.64,-10.78,-42.14,121.1
-1.31,-1.03,-0.57,4.2,-40.88,121.1
-1.04,-0.72,-0.54,18.27,-35.63,133
-1.08,-0.49,-0.56,25.62,-39.76,137.27
-1.06,-0.39,-0.34,20.3,-38.01,135.31
-0.91,-0.42,-0.21,4.48,-36.19,137.48
-0.76,-0.47,-0.23,-5.88,-30.59,138.95
-0.73,-0.49,-0.26,-17.78,-26.74,140.14
-0.73,-0.53,-0.26,-28.56,-29.26,140.63
-0.71,-0.51,-0.24,-38.15,-34.86,139.23
-0.67,-0.52,-0.18,-46.41,-37.31,134.47
-0.67,-0.51,-0.15,-56.7,-35.77,125.65
-0.68,-0.53,-0.18,-65.38,-35.7,115.15
-0.65,-0.53,-0.17,-73.29,-35.42,101.92
-0.62,-0.49,-0.18,-83.58,-35.7,84.84
-0.59,-0.5,-0.2,-94.5,-34.23,70.21
-0.51,-0.54,-0.22,-104.93,-31.15,58.31
-0.42,-0.59,-0.26,-108.71,-28.98,49.7
-0.32,-0.67,-0.28,-103.18,-21.77,41.86
-0.27,-0.72,-0.3,-98.14,-17.29,34.58
-0.25,-0.76,-0.29,-93.03,-14.14,27.86
-0.22,-0.8,-0.28,-84.84,-8.75,19.46
-0.26,-0.83,-0.21,-70.56,-5.95,14.42
-0.37,-0.81,-0.06,-54.04,-1.33,8.19
-0.55,-0.82,0.09,-34.58,5.18,6.3
-0.64,-0.64,0.02,-21.91,11.83,6.65
-0.72,-0.43,0.01,-19.25,22.26,7.7
-0.91,-0.18,0.14,-14.7,37.45,35.21
-1.21,0.35,0.3,-7.49,41.44,37.1
-1.37,0.72,0.59,-14.91,37.59,35.84
-1.63,1,0.28,-22.26,1.05,21.14
-1.52,1.3,0.44,-4.27,-8.12,9.31
-1.73,1.91,0.66,24.92,3.64,13.23
-2.07,2.33,0.61,41.51,-1.54,18.2
-1.8,1.79,0.35,22.89,-2.1,14.56
-1.5,0.87,0.05,-5.53,-2.8,11.13
-1.24,0.36,-0.04,-34.3,-3.5,8.61
-0.89,0,-0.16,-52.64,3.85,-1.4
-0.6,-0.32,-0.33,-63.35,17.85,-24.64
-0.42,-0.64,-0.13,-60.13,37.73,-60.76
-0.85,-0.78,0.28,-58.94,33.53,-86.38
-1.6,-0.51,0.66,-40.74,12.32,-52.71
-1.8,0.07,0.38,-29.61,6.79,-8.82
-1.52,0.19,-0.02,-12.18,31.78,-7.77
-1.36,0.01,0.13,35.42,73.22,-38.99
-1.28,-0.03,0.22,58.1,119.49,-73.08
-1.1,-0.34,-0.03,98.7,143.22,-67.83
-0.93,-1.06,-0.61,204.82,127.54,-8.33
-0.5,-1.38,-0.74,281.19,81.62,-4.55
-0.01,-1.85,-0.57,252,37.94,-59.64
0.24,-2.22,-0.51,175.14,65.24,-105.42
-0.15,-1.91,-0.65,71.33,68.46,-76.58
-0.49,-0.9,-0.76,19.74,41.86,-86.8
-0.77,-0.62,-0.5,17.01,45.36,-75.46
-1.06,-0.27,-0.43,20.3,48.58,-69.65
-1.3,-0.17,-0.46,8.61,36.26,-60.76
-1.33,-0.14,-0.51,2.45,28.77,-58.17
-1.19,-0.12,-0.58,-0.91,27.72,-62.44
-1.14,-0.09,-0.66,6.23,24.85,-71.33
-1.09,-0.12,-0.69,22.33,19.53,-80.5
-1.02,-0.17,-0.52,44.17,16.52,-89.04
-0.99,-0.15,-0.37,47.67,3.99,-99.89
-0.96,-0.14,-0.29,39.41,-7.07,-105.98
-1,-0.16,-0.32,38.71,-14.7,-111.02
-0.88,-0.16,-0.2,5.88,-10.57,-107.59
-0.9,-0.31,-0.37,28.28,-17.78,-108.08
-0.85,-0.21,-0.25,32.9,-26.18,-102.83
-0.83,-0.19,-0.19,17.99,-21.35,-102.06
-0.84,-0.25,-0.17,-3.99,-17.92,-97.09
-0.85,-0.16,-0.18,-28.21,-14.7,-95.27
-0.83,-0.29,-0.06,-33.67,4.69,-87.64
-0.9,-0.24,0.01,-3.43,18.27,-88.9
-0.99,-0.23,0.01,12.46,16.45,-87.85
-1.01,-0.23,-0.01,26.18,10.43,-86.03
-0.97,-0.15,-0.06,24.78,9.24,-81.83
-0.93,-0.11,-0.1,24.43,15.4,-79.66
-0.96,-0.06,-0.11,28.35,18.27,-79.03
-0.94,-0.11,-0.1,30.45,21.77,-78.61
-0.94,-0.21,-0.13,30.8,24.5,-77.63
-0.98,-0.26,-0.2,32.2,25.76,-75.88
-1.03,-0.24,-0.27,31.5,24.43,-75.32
-1.06,-0.17,-0.3,28.28,21.28,-73.99
-1.09,-0.08,-0.32,24.5,18.13,-71.89
-1.13,0,-0.32,21,14.07,-69.86
-1.14,0.05,-0.3,16.66,10.78,-67.83
-1.19,0.03,-0.29,9.94,7.28,-66.01
-1.23,-0.03,-0.3,3.29,2.03,-62.37
-1.25,-0.08,-0.27,-4.69,-3.99,-56
-1.27,-0.07,-0.21,-9.73,-10.57,-45.85
-1.26,-0.05,-0.13,-7.63,-35.49,-38.15
-1.23,-0.01,-0.05,2.52,-25.27,-31.92
-1.2,0.01,-0.04,14.21,-28.49,-23.8
-1.16,0.02,-0.09,17.78,-32.06,-12.67
-1.22,0.07,-0.13,12.95,-34.16,0.14
-1.38,0.16,-0.05,4.83,-39.69,12.6
-1.54,0.23,0.13,4.76,-51.24,29.89
-1.61,0.35,0.34,27.93,-60.62,46.41
-1.57,0.5,0.36,66.22,-60.69,62.86
-1.58,0.57,0.33,93.59,-59.78,76.44
-1.52,0.54,0.11,86.52,-56.35,87.36
-1.4,0.4,-0.28,56.98,-52.29,96.32
-1.24,0.34,-0.44,14.42,-53.41,103.11
-1.05,0.06,-0.39,-28.42,-50.26,113.12
-0.91,-0.19,-0.3,-49.77,-33.67,117.95
-0.89,-0.57,-0.31,-70.07,-21.56,125.16
-0.94,-1,-0.41,-58.1,-16.66,130.48
-1.1,-1.13,-0.52,-25.27,-15.12,136.71
-1.2,-1.03,-0.58,-14.49,-10.78,138.53
-1.56,-1.04,-0.61,-24.43,-30.73,125.02
-1.54,-1.12,-0.54,-17.15,-40.6,119.42
-1.31,-0.9,-0.51,0.7,-32.55,126.77
-1.21,-0.6,-0.46,4.9,-23.94,139.72
-1.18,-0.54,-0.44,-1.75,-26.88,146.86
-1.14,-0.59,-0.38,-3.71,-32.55,152.11
-1.04,-0.66,-0.33,-5.6,-41.79,152.53
-0.89,-0.73,-0.21,-4.2,-43.89,153.51
-0.76,-0.74,-0.07,-5.6,-41.02,153.93
-0.7,-0.73,0,-9.66,-38.22,153.02
-0.68,-0.71,-0.01,-11.97,-35.91,148.26
-0.64,-0.62,-0.01,-20.65,-33.53,140.49
-0.64,-0.55,-0.06,-31.43,-30.52,129.22
-0.59,-0.57,-0.1,-40.39,-28.7,116.41
-0.57,-0.56,-0.16,-54.88,-30.87,106.05
-0.54,-0.57,-0.19,-61.81,-35.77,94.5
-0.54,-0.55,-0.15,-70.14,-36.4,78.75
-0.48,-0.6,-0.15,-80.5,-35.98,64.89
-0.39,-0.62,-0.17,-87.99,-32.55,52.22
-0.31,-0.67,-0.23,-90.16,-25.9,40.46
-0.23,-0.87,-0.25,-86.52,-19.88,27.65
-0.19,-0.79,-0.26,-76.09,-14.35,19.6
-0.18,-0.83,-0.26,-61.67,-6.51,13.23
-0.21,-0.79,-0.21,-21.42,-2.1,9.38
-0.28,-0.78,-0.12,-20.02,6.79,3.36
-0.48,-0.79,-0.01,1.89,11.76,0
-0.58,-0.64,-0.08,15.61,17.29,-1.61
-0.71,-0.3,-0.1,14.07,28.84,2.52
-1.01,0.08,0.14,7.07,39.83,20.58
-1.54,0.56,0.71,-14.49,38.43,38.5
-1.79,0.9,0.66,-32.48,11.69,32.2
-1.94,1.28,0.42,-39.34,-36.54,34.3
-1.89,1.84,0.69,20.3,-36.82,45.01
-1.88,2.54,0.55,79.1,-16.45,32.76
-1.89,2.04,0.47,69.23,-3.15,14.28
-1.59,1.23,0.26,30.52,6.79,17.92
-1.31,0.57,-0.04,-3.15,3.5,21.7
-1.06,0.06,-0.19,-35.98,4.55,22.89
-0.79,-0.22,-0.31,-53.55,10.08,9.73
-0.52,-0.48,-0.38,-55.02,16.24,-16.38
-0.28,-0.63,-0.27,-53.62,38.92,-59.92
-0.5,-0.59,-0.05,-49.98,61.18,-73.64
-1.45,-0.39,0.32,-42.98,37.66,-65.24
-1.68,-0.21,0.51,-38.29,9.94,-33.25
-1.44,0.03,0.24,-8.75,13.16,-24.5
-1.16,-0.07,0.17,11.76,35.35,-44.87
-1.06,-0.03,0.15,29.4,70.56,-81.41
-1.04,-0.24,0.02,56.98,103.95,-93.17
-1.13,-0.69,-0.22,117.88,141.68,-53.34
-1.02,-1.11,-0.6,191.52,107.03,0.35
-0.43,-1.28,-0.59,188.93,69.37,-25.48
-0.11,-1.8,-0.48,163.38,70.77,-70.63
-0.12,-2.03,-0.61,119.77,83.86,-92.68
-0.46,-1.36,-0.67,76.3,67.27,-74.34
-0.65,-0.56,-0.6,48.51,45.29,-73.71
-0.84,-0.3,-0.48,39.9,46.97,-66.08
-1.08,-0.15,-0.45,18.62,41.09,-62.44
-1.18,-0.16,-0.5,-8.89,31.08,-58.45
-1.2,-0.21,-0.58,-11.97,26.81,-58.59
-1.2,-0.15,-0.61,-9.17,25.55,-65.24
-1.19,-0.23,-0.63,0.21,17.01,-78.61
-1.11,-0.2,-0.54,23.38,12.25,-88.69
-1.02,-0.19,-0.42,38.01,6.86,-98.07
-0.99,-0.17,-0.35,38.36,-1.89,-103.53
-0.98,-0.15,-0.35,26.39,-10.22,-105.56
-0.94,-0.2,-0.42,28.42,-18.69,-105.91
-0.75,-0.26,-0.33,33.53,-16.31,-102.62
-0.69,-0.21,-0.24,19.67,-10.78,-95.9
-0.74,-0.3,-0.21,15.4,-10.36,-91
-0.83,-0.28,-0.14,2.87,-5.18,-87.71
-0.9,-0.3,-0.12,-3.29,-1.68,-86.45
-0.96,-0.23,-0.11,0,-2.66,-87.15
-0.96,-0.28,-0.05,2.94,-0.21,-82.32
-0.95,-0.22,0,24.92,16.03,-82.18
-1.04,-0.16,-0.05,35.91,18.55,-83.79
-1.05,-0.1,-0.04,40.88,13.79,-82.39
-0.98,-0.07,-0.09,34.02,13.23,-80.64
-0.96,-0.05,-0.12,28,15.12,-80.64
-0.92,-0.05,-0.13,24.99,17.36,-81.69
-0.88,-0.1,-0.17,24.78,20.23,-81.9
-0.88,-0.2,-0.21,22.68,22.05,-81.34
-0.93,-0.3,-0.26,20.37,22.89,-80.99
-1.03,-0.29,-0.29,19.67,18.76,-80.85
-1.08,-0.21,-0.28,19.88,14.77,-79.17
-1.14,-0.1,-0.28,19.6,9.38,-76.23
-1.16,0,-0.25,19.04,8.12,-73.01
-1.19,0.08,-0.23,15.82,8.12,-69.44
-1.23,0.08,-0.24,13.3,5.04,-63.49
-1.25,0.02,-0.26,9.8,0,-58.03
-1.28,0,-0.25,3.15,-9.17,-50.68
-1.27,-0.01,-0.22,-5.46,-14.56,-42.42
-1.26,-0.01,-0.15,-4.97,-18.2,-34.65
-1.27,0.03,-0.06,2.59,-25.27,-29.4
-1.25,0.05,-0.01,10.43,-33.25,-20.86
-1.23,0.06,-0.03,14.7,-38.22,-6.58
-1.28,0.14,0.01,13.86,-40.6,7.14
-1.46,0.22,0.11,10.64,-49,20.44
-1.59,0.33,0.31,27.16,-59.64,36.75
-1.59,0.49,0.42,64.12,-64.4,53.13
-1.53,0.59,0.36,90.02,-63.07,66.64
-1.49,0.64,0.18,97.72,-56.49,83.79
-1.46,0.53,-0.16,80.22,-50.61,93.1
-1.27,0.47,-0.45,42.14,-53.83,94.78
-1.21,0.2,-0.56,-1.33,-57.82,98.84
-1.08,-0.02,-0.44,-31.43,-56.28,105.7
-0.89,-0.36,-0.39,-56.7,-39.83,112.63
-0.82,-0.68,-0.42,-77.84,-19.39,120.75
-0.94,-1.23,-0.59,-60.48,-15.68,130.97
-1.17,-1.18,-0.61,-38.29,-20.44,138.81
-1.44,-1.12,-0.65,-33.95,-25.55,133.7
-1.59,-1.16,-0.59,-19.95,-37.94,122.08
-1.44,-1.05,-0.57,-15.96,-31.15,121.66
-1.26,-0.74,-0.58,-9.52,-31.36,132.79
-1.14,-0.58,-0.5,0.07,-24.92,144.97
-1.14,-0.55,-0.48,-0.28,-27.79,151.41
-1.12,-0.51,-0.41,-14.63,-34.93,151.62
-0.9,-0.6,-0.3,-20.93,-35.21,149.8
-0.77,-0.67,-0.2,-21.98,-32.06,148.33
-0.73,-0.73,-0.12,-24.85,-30.31,147.14
-0.73,-0.7,-0.07,-25.41,-32.41,143.92
-0.68,-0.61,-0.05,-35.28,-31.85,137.76
-0.67,-0.54,-0.08,-45.99,-31.36,126.63
-0.67,-0.56,-0.1,-56.98,-29.96,116.06
-0.62,-0.56,-0.1,-68.11,-29.47,106.05
-0.6,-0.59,-0.16,-80.36,-33.46,94.99
-0.57,-0.61,-0.2,-88.62,-39.76,84.56
-0.52,-0.62,-0.15,-97.44,-40.74,70.63
-0.42,-0.65,-0.14,-104.16,-36.54,55.37
-0.34,-0.69,-0.18,-109.27,-29.61,43.96
-0.25,-0.75,-0.22,-107.8,-24.01,33.81
-0.2,-0.77,-0.23,-102.48,-22.19,25.41
-0.15,-0.79,-0.2,-87.92,-17.36,18.97
-0.18,-0.8,-0.12,-71.47,-14.49,17.5
-0.25,-0.76,-0.11,-57.12,-8.33,12.25
-0.42,-0.97,-0.15,-26.6,-4.76,11.55
-0.58,-0.83,-0.05,6.65,0.84,10.78
-0.67,-0.53,-0.04,20.58,19.67,10.01
-0.88,-0.15,0.04,14.07,37.94,18.48
-1.24,0.33,0.4,-1.96,50.61,35.77
-1.57,0.69,0.72,-15.96,39.9,38.29
-1.85,1.04,0.39,-40.18,-11.83,30.38
-1.89,1.6,0.61,-4.83,-34.65,42.14
-1.87,2.26,0.56,62.44,-13.72,43.12
-1.85,2.37,0.51,88.48,1.26,24.99
-1.68,1.61,0.34,49.98,9.59,24.92
-1.43,0.87,0.1,18.97,5.88,26.6
-1.18,0.29,-0.09,-8.96,0,27.44
-0.89,-0.24,-0.19,-32.62,4.9,13.23
-0.61,-0.48,-0.29,-46.48,11.13,-13.37
-0.26,-0.74,-0.3,-47.81,26.32,-48.72
-0.27,-0.84,-0.17,-49.42,50.61,-75.04
-0.88,-0.62,0.06,-37.73,51.17,-74.34
-1.42,-0.41,0.48,-28.35,29.33,-59.43
-1.47,-0.1,0.32,-3.5,14,-30.73
-1.25,-0.06,0.2,13.44,23.52,-34.58
-1.15,-0.05,0.18,33.6,60.06,-61.6
-1.2,-0.02,0.1,54.95,97.51,-87.01
-1.39,-0.14,-0.04,86.87,132.86,-87.57
-1.53,-0.72,-0.28,136.64,154.07,-22.05
-1.12,-0.98,-0.71,172.13,93.8,4.69
-0.38,-1.4,-0.5,181.65,78.54,-35.35
-0.2,-1.79,-0.48,173.67,79.1,-70.98
-0.27,-1.71,-0.58,132.72,72.52,-79.52
-0.51,-1,-0.67,103.11,45.78,-62.93
-0.59,-0.48,-0.5,73.01,36.19,-63.98
-0.82,-0.25,-0.51,42.63,39.27,-59.78
-1.04,-0.16,-0.53,12.11,32.76,-59.78
-1.14,-0.14,-0.57,-10.78,28.63,-59.01
-1.14,-0.14,-0.63,-21.77,25.69,-59.22
-1.12,-0.14,-0.67,-11.76,21.7,-64.96
-1.08,-0.15,-0.62,13.44,15.96,-73.36
-1.05,-0.16,-0.48,36.75,13.37,-84.21
-1.01,-0.18,-0.39,45.64,3.64,-92.68
-0.99,-0.19,-0.37,47.95,-8.26,-98.28
-1.03,-0.14,-0.37,41.93,-15.82,-100.03
-0.9,-0.15,-0.34,29.47,-22.75,-97.51
-0.75,-0.2,-0.23,22.96,-12.88,-91.91
-0.77,-0.35,-0.31,34.93,-10.92,-85.54
-0.81,-0.26,-0.13,27.72,-12.39,-80.15
-0.86,-0.25,-0.09,7.28,-6.72,-77.49
-0.88,-0.24,-0.07,10.08,0.21,-74.76
-0.95,-0.19,-0.08,10.08,2.59,-72.31
-0.93,-0.21,0,35.98,23.59,-70.63
-1.04,-0.2,0,55.02,29.05,-74.27
-1.07,-0.18,-0.04,60.48,25.62,-73.22
-0.99,-0.14,-0.14,55.02,23.94,-72.73
-0.96,-0.09,-0.2,50.89,25.34,-75.25
-0.94,-0.08,-0.26,43.47,22.96,-77.28
-0.88,-0.12,-0.26,36.33,20.65,-79.73
-0.81,-0.16,-0.26,26.95,18.97,-80.99
-0.81,-0.21,-0.29,17.85,16.31,-81.06
-0.87,-0.23,-0.32,8.96,13.79,-81.06
-0.95,-0.23,-0.37,3.15,11.13,-82.04
-1.05,-0.18,-0.38,1.4,6.02,-81.9
-1.1,-0.1,-0.34,2.94,4.48,-80.43
-1.12,-0.01,-0.3,3.99,4.27,-77.77
-1.14,0.05,-0.25,3.01,3.15,-73.85
-1.19,0.02,-0.25,-0.14,0.84,-69.51
-1.23,-0.1,-0.26,-1.96,-1.54,-62.51
-1.27,-0.12,-0.23,-5.95,-8.26,-55.51
-1.3,-0.11,-0.19,-10.71,-14.91,-48.72
-1.3,-0.08,-0.17,-8.26,-17.71,-41.16
-1.31,-0.05,-0.14,5.67,-19.39,-34.58
-1.29,-0.06,-0.17,17.15,-23.66,-26.18
-1.27,-0.05,-0.24,18.69,-27.93,-16.17
-1.33,0.01,-0.24,9.8,-31.57,-0.91
-1.47,0.15,-0.18,-7.28,-41.93,11.13
-1.57,0.28,-0.04,-19.25,-59.64,25.34
-1.63,0.47,0.2,-9.31,-69.65,43.96
-1.69,0.63,0.35,13.93,-75.81,63.98
-1.63,0.67,0.41,45.57,-75.18,76.65
-1.39,0.55,0.23,56.56,-66.5,88.69
-1.24,0.31,-0.1,41.44,-57.12,95.69
-1.11,0.09,-0.33,12.53,-49.14,99.05
-1.01,-0.07,-0.39,-16.45,-42.56,101.92
-0.91,-0.23,-0.44,-40.53,-36.75,99.26
-0.92,-0.48,-0.38,-52.78,-31.36,105.07
-0.86,-0.66,-0.39,-53.55,-29.19,114.66
-0.87,-0.69,-0.49,-44.45,-22.82,128.38
-1.07,-0.69,-0.66,-51.1,-28.84,136.71
-1.32,-0.76,-0.68,-70.21,-39.27,137.76
-1.47,-0.9,-0.5,-77.49,-44.1,127.89
-1.41,-0.9,-0.33,-64.47,-46.34,127.68
-1.31,-0.66,-0.28,-46.48,-40.74,139.02
-1.2,-0.67,-0.46,-29.26,-36.19,145.25
-1.16,-0.74,-0.52,-10.36,-39.69,151.55
-1.1,-0.79,-0.43,-6.44,-46.48,155.61
-0.91,-0.84,-0.28,-3.15,-48.23,159.95
-0.81,-0.78,-0.18,-3.01,-45.08,158.76
-0.79,-0.71,-0.13,1.19,-41.3,154.91
-0.79,-0.56,-0.14,-2.73,-41.86,147.35
-0.71,-0.5,-0.07,-15.89,-38.71,135.94
-0.75,-0.57,-0.25,-11.76,-42.28,123.69
-0.68,-0.55,-0.23,-25.76,-44.52,114.1
-0.63,-0.55,-0.13,-40.95,-42.35,100.66
-0.56,-0.55,-0.14,-54.81,-42.07,88.34
-0.54,-0.56,-0.19,-70.28,-41.93,71.4
-0.47,-0.62,-0.19,-84.14,-38.85,58.73
-0.37,-0.66,-0.23,-93.24,-34.16,45.57
-0.3,-0.74,-0.28,-90.93,-27.09,34.09
-0.24,-0.78,-0.28,-87.5,-20.79,24.01
-0.17,-0.81,-0.27,-77.98,-16.17,15.4
-0.16,-0.83,-0.26,-57.4,-13.44,10.43
-0.2,-0.8,-0.2,-29.75,-11.2,7.21
-0.23,-0.77,-0.05,-16.87,-1.05,2.03
-0.42,-0.72,0.05,3.5,7.63,0.07
-0.54,-0.39,-0.01,13.86,14.56,1.4
-0.79,-0.07,0.02,8.89,28.14,11.69
-1.2,0.36,0.55,-7.49,30.94,29.47
-1.58,0.65,0.71,-22.12,27.93,30.59
-1.88,1.05,0.26,-44.94,-29.54,27.3
-1.7,1.4,0.73,-16.1,-50.75,28.28
-1.7,2.02,0.69,36.61,-23.03,21.21
-1.87,2.3,0.54,49.84,-2.52,0.63
-1.7,1.63,0.35,25.34,7.07,8.12
-1.36,0.95,0.11,1.19,3.15,18.55
-1.17,0.41,-0.05,-26.53,-6.02,21.7
-0.88,-0.03,-0.23,-43.89,-4.83,13.86
-0.59,-0.59,-0.31,-53.97,3.92,-17.99
-0.37,-0.84,-0.3,-56.35,22.68,-51.52
-0.44,-0.88,-0.16,-57.68,47.88,-70.7
-0.97,-0.4,0.12,-37.66,52.78,-59.22
-1.39,-0.07,0.35,-8.89,42.63,-40.95
-1.45,0.04,0.36,26.11,45.85,-37.17
-1.3,-0.05,0.22,41.16,59.99,-43.89
-1.27,-0.09,0.15,42.77,90.58,-65.52
-1.33,-0.22,0,57.82,120.82,-85.96
-1.4,-0.5,-0.1,93.94,137.2,-67.76
-1.33,-1.03,-0.53,152.32,122.78,-13.58
-0.77,-1.17,-0.53,169.33,69.3,-23.03
-0.32,-1.42,-0.36,158.9,58.87,-54.11
-0.21,-1.52,-0.45,133.14,67.69,-77.21
-0.35,-1.33,-0.68,105.35,70.63,-73.08
-0.55,-0.79,-0.71,79.73,59.08,-68.88
-0.85,-0.44,-0.59,46.76,48.3,-67.27
-0.95,-0.3,-0.52,32.69,51.52,-64.26
-1.1,-0.22,-0.52,13.02,42,-60.48
-1.16,-0.17,-0.53,-2.31,33.81,-59.85
-1.16,-0.14,-0.59,-7.56,23.8,-62.44
-1.11,-0.11,-0.59,5.46,18.34,-69.44
-1.06,-0.12,-0.53,32.62,19.46,-76.79
-1.03,-0.17,-0.45,42.21,20.23,-84.91
-1.01,-0.26,-0.43,53.55,11.83,-92.89
-1.04,-0.24,-0.43,59.64,-2.17,-95.76
-1.01,-0.16,-0.38,58.1,-10.01,-97.16
-0.78,-0.2,-0.35,47.04,-10.64,-92.4
-0.65,-0.33,-0.31,42.7,-2.66,-85.47
-0.75,-0.29,-0.24,39.83,-1.68,-82.18
-0.82,-0.22,-0.11,17.92,-4.2,-78.05
-0.86,-0.24,-0.07,18.2,6.79,-76.93
-0.94,-0.23,-0.1,24.99,13.79,-77.49
-1.04,-0.2,-0.18,27.37,9.94,-77.98
-1.02,-0.29,-0.12,43.89,20.93,-78.19
-1.01,-0.21,-0.11,58.38,26.74,-79.66
-1.02,-0.15,-0.16,55.09,22.68,-80.36
-0.98,-0.1,-0.19,48.3,19.88,-80.99
-0.94,-0.06,-0.21,43.33,0,-80.22
-0.91,-0.04,-0.22,35.91,14.91,-81.48
-0.86,-0.05,-0.23,21.49,13.44,-81.13
-0.83,-0.12,-0.25,9.8,12.88,-80.57
-0.84,-0.21,-0.28,3.22,13.51,-80.85
-0.87,-0.29,-0.31,1.47,13.65,-81.27
-0.95,-0.29,-0.31,2.59,12.32,-82.11
-1.05,-0.24,-0.29,5.6,11.13,-81.62
-1.15,-0.15,-0.25,10.15,10.01,-78.82
-1.2,-0.05,-0.23,17.01,7.63,-73.85
-1.19,0.04,-0.2,20.3,4.76,-68.88
-1.2,0.1,-0.21,15.82,3.5,-63.35
-1.25,0.03,-0.26,12.11,2.38,-56.98
-1.29,0,-0.23,8.89,-2.1,-51.45
-1.33,0.01,-0.16,-0.14,-10.64,-42.91
-1.31,0.03,-0.07,-5.53,-18.27,-34.02
-1.29,0.06,0.02,1.82,-24.22,-26.11
-1.24,0.09,0.05,14.77,-27.51,-17.85
-1.2,0.11,0.04,24.15,-30.03,-8.26
-1.22,0.14,0.04,26.39,-31.71,6.58
-1.36,0.18,0.07,24.29,-34.3,20.09
-1.57,0.28,0.15,24.15,-44.59,36.75
-1.65,0.44,0.23,37.59,-59.01,54.88
-1.63,0.63,0.28,66.5,-68.46,70.42
-1.59,0.72,0.31,82.74,-68.11,87.43
-1.5,0.65,-0.01,76.37,-61.04,99.12
-1.44,0.39,-0.35,51.45,-52.92,107.66
-1.36,0.26,-0.6,18.76,-55.86,107.52
-1.22,0.04,-0.6,-16.31,-59.29,116.41
-1.11,-0.21,-0.46,-46.55,-52.15,118.65
-1.05,-0.58,-0.42,-62.58,-43.89,125.65
-0.92,-0.85,-0.55,-75.53,-34.3,134.96
-1.11,-1.04,-0.71,-63.84,-28,147.63
-1.35,-1.04,-0.74,-56.42,-20.09,144.62
-1.58,-1.16,-0.68,-60.34,-42.14,139.93
-1.54,-1.18,-0.59,-49.98,-46.55,132.86
-1.4,-0.98,-0.53,-27.23,-46.48,138.11
-1.11,-0.8,-0.44,1.82,-36.61,147.77
-1.19,-0.54,-0.42,4.13,-36.12,150.92
-1.12,-0.59,-0.33,2.17,-37.38,148.19
-0.93,-0.64,-0.28,-11.27,-36.33,149.24
-0.71,-0.7,-0.25,-16.73,-31.85,149.73
-0.7,-0.66,-0.21,-27.02,-26.88,149.38
-0.72,-0.66,-0.26,-27.23,-29.05,145.39
-0.76,-0.61,-0.24,-34.23,-37.38,140.14
-0.72,-0.58,-0.17,-44.38,-42.98,134.05
-0.63,-0.58,-0.1,-54.39,-41.86,121.17
-0.63,-0.63,-0.2,-58.8,-43.12,108.22
-0.56,-0.66,-0.19,-63.42,-46.9,95.9
-0.51,-0.61,-0.14,-77.21,-45.22,80.01
-0.48,-0.61,-0.13,-92.82,-40.53,61.95
-0.39,-0.65,-0.18,-102.69,-34.93,46.34
-0.28,-0.69,-0.27,-103.32,-30.17,35
-0.21,-0.7,-0.35,-99.33,-25.34,31.85
-0.14,-0.73,-0.37,-94.22,-22.4,25.69
-0.14,-0.8,-0.31,-81.41,-21.77,20.3
-0.21,-0.86,-0.23,-58.66,-24.29,14.07
-0.31,-0.96,-0.09,-39.41,-28.98,6.51
-0.32,-0.95,0.03,-32.9,-19.04,-1.68
-0.43,-0.81,0.07,-14,-3.08,-1.4
-0.56,-0.46,-0.02,-3.57,11.83,1.4
-0.85,-0.06,0.03,-2.87,35.56,15.75
-1.28,0.42,0.36,-11.55,45.08,39.41
-1.63,0.73,0.66,-26.88,47.11,40.11
-1.83,0.89,0.1,-39.83,1.47,24.57
-1.66,1.12,0.52,-18.97,-25.62,22.4
-1.72,1.87,0.6,25.97,-11.76,19.81
-1.93,2.18,0.52,53.13,17.22,10.99
-1.69,1.78,0.38,41.58,11.55,9.59
-1.38,1.09,0.16,17.36,14,19.6
-1.24,0.55,0.07,-5.88,6.65,22.75
-1.05,0.11,-0.03,-25.41,2.45,22.82
-0.78,-0.23,-0.22,-39.27,5.32,7.63
-0.49,-0.61,-0.27,-40.53,10.71,-27.37
-0.26,-0.75,-0.22,-52.15,36.26,-63.77
-0.57,-0.62,-0.04,-48.51,56.21,-74.97
-1.09,-0.37,0.24,-34.86,48.37,-67.41
-1.41,-0.12,0.4,-14,32.48,-49.77
-1.28,0.01,0.36,9.31,15.75,-42.84
-1.13,-0.09,0.32,16.87,33.39,-54.53
-1.09,-0.09,0.21,34.65,73.57,-75.11
-1.27,-0.07,0.1,52.15,111.44,-86.59
-1.6,-0.25,-0.18,81.97,146.37,-67.13
-1.75,-0.82,-0.62,119.07,144.55,11.06
-0.82,-0.96,-0.72,145.04,82.25,-0.35
-0.28,-1.37,-0.41,159.6,81.06,-36.75
-0.19,-1.59,-0.53,143.43,76.65,-62.3
-0.26,-1.49,-0.7,136.57,61.81,-63.14
-0.52,-0.89,-0.65,103.11,36.33,-57.61
-0.63,-0.45,-0.63,54.18,29.96,-61.46
-0.93,-0.26,-0.64,16.87,28.91,-63.98
-1.11,-0.19,-0.61,-20.86,24.29,-62.79
-1.17,-0.18,-0.59,-34.3,23.45,-62.93
-1.2,-0.17,-0.59,-26.25,22.61,-66.36
-1.19,-0.11,-0.54,0,17.01,-76.79
-1.12,-0.22,-0.5,19.53,13.16,-87.22
-1.03,-0.28,-0.43,31.01,8.82,-94.99
-1,-0.26,-0.41,36.26,-1.33,-100.31
-1.02,-0.19,-0.38,34.3,-11.62,-104.09
-0.95,-0.15,-0.33,29.54,-21.63,-103.67
-0.65,-0.26,-0.26,24.08,-17.01,-96.95
-0.57,-0.28,-0.11,14.35,-1.68,-89.11
-0.76,-0.37,-0.22,18.41,-1.89,-84.35
-0.89,-0.3,-0.12,7.98,-6.93,-80.92
-0.89,-0.3,-0.09,8.68,-1.05,-79.52
-0.93,-0.18,-0.1,14.14,7.35,-79.94
-0.97,-0.29,-0.04,15.82,17.08,-74.83
-1.02,-0.24,0,41.93,28.98,-76.72
-1.09,-0.22,-0.04,61.95,27.16,-78.82
-1,-0.16,-0.07,60.55,26.46,-79.73
-0.94,-0.13,-0.15,52.29,24.99,-80.43
-0.91,-0.09,-0.2,45.64,25.27,-82.25
-0.9,-0.06,-0.24,37.52,22.19,-84.35
-0.87,-0.07,-0.24,29.47,18.97,-87.64
-0.83,-0.14,-0.24,0.98,16.52,-89.6
-0.85,-0.23,-0.27,5.18,13.02,-89.81
-0.9,-0.27,-0.31,-1.82,11.06,-89.53
-0.97,-0.23,-0.33,-2.94,9.17,-88.2
-1.02,-0.14,-0.34,2.38,8.19,-84.21
-1.09,-0.06,-0.34,8.96,5.95,-80.08
-1.14,0.01,-0.32,12.46,5.88,-76.51
-1.16,0.04,-0.29,13.79,5.46,-71.82
-1.19,-0.01,-0.29,10.78,3.15,-66.15
-1.23,-0.07,-0.28,4.9,-0.7,-59.57
-1.3,-0.06,-0.24,-4.97,-9.38,-50.26
-1.32,-0.05,-0.2,-13.86,-15.26,-43.19
-1.31,-0.03,-0.09,-6.79,-21.7,-37.59
-1.31,-0.03,0.01,7.42,-24.43,-30.66
-1.3,-0.03,0.06,22.54,-30.66,-22.89
-1.29,-0.04,0.04,32.06,-31.85,-13.3
-1.35,0.04,-0.02,35.77,-30.8,-3.36
-1.5,0.2,-0.03,30.1,-37.24,12.67
-1.6,0.43,-0.03,24.36,-50.4,28.42
-1.65,0.62,0.05,24.36,-70.14,44.59
-1.64,0.76,0.17,31.64,-77.42,62.23
-1.61,0.8,0.28,44.1,-78.96,76.3
-1.5,0.69,0.05,36.75,-74.41,89.39
-1.33,0.48,-0.28,10.57,-71.12,98.91
-1.13,0.17,-0.44,-15.75,-67.69,106.61
-0.96,-0.08,-0.4,-33.74,-58.45,112.42
-0.85,-0.4,-0.36,-49.49,-38.78,113.61
-0.84,-0.73,-0.34,-56.35,-26.81,119
-0.9,-0.99,-0.43,-48.65,-17.85,127.68
-1.07,-1,-0.51,-41.86,-8.75,135.45
-1.38,-0.93,-0.65,-48.44,-14.77,134.33
-1.58,-0.99,-0.63,-59.43,-37.45,131.81
-1.56,-1.06,-0.54,-53.69,-40.95,127.33
-1.44,-0.76,-0.5,-48.86,-38.78,131.11
-1.2,-0.58,-0.31,-32.9,-25.9,140.21
-1.22,-0.59,-0.38,-21.63,-25.13,145.32
-1.21,-0.7,-0.41,-7.98,-33.95,145.74
-1.05,-0.77,-0.35,-1.05,-41.09,148.75
-0.86,-0.78,-0.2,-11.83,-38.29,151.48
-0.75,-0.77,-0.14,-12.88,-36.26,153.44
-0.75,-0.7,-0.07,-11.62,-35.28,151.55
-0.77,-0.64,-0.1,-12.39,-37.52,147.28
-0.72,-0.54,-0.06,-19.39,-40.25,135.73
-0.67,-0.54,-0.05,-31.99,-39.9,125.44
-0.65,-0.57,-0.09,-45.5,-40.11,115.5
-0.64,-0.61,-0.17,-50.12,-42.7,103.81
-0.58,-0.58,-0.13,-65.1,-46.06,94.15
-0.54,-0.6,-0.1,-78.19,-45.15,80.15
-0.47,-0.64,-0.14,-88.27,-43.68,63.49
-0.37,-0.68,-0.18,-91.77,-40.81,51.24
-0.28,-0.72,-0.2,-91.07,-34.3,40.11
-0.22,-0.77,-0.22,-86.31,-30.31,29.75
-0.19,-0.8,-0.24,-76.93,-26.81,20.79
-0.2,-0.82,-0.27,-53.55,-23.8,17.43
-0.23,-0.8,-0.21,-23.87,-18.97,14.14
-0.29,-0.77,-0.07,-8.4,-6.79,6.3
-0.5,-0.67,0.04,18.69,4.55,6.09
-0.55,-0.4,-0.03,19.81,20.37,6.44
-0.8,-0.09,0.02,15.19,37.03,13.37
-1.24,0.29,0.46,-1.12,35.14,26.25
-1.53,0.68,0.84,-28.14,29.96,25.34
-1.8,1.03,0.37,-47.04,-20.58,16.1
-1.87,1.46,0.6,-36.12,-44.03,20.86
-1.83,2.11,0.63,36.12,-23.94,21.42
-1.93,2.48,0.53,58.59,-5.53,7.49
-1.71,1.82,0.38,33.18,7.7,11.06
-1.42,0.77,0.09,8.26,9.38,20.44
-1.2,0.33,-0.03,-13.44,1.96,24.99
-0.88,-0.05,-0.13,-33.04,-2.52,21.49
-0.52,-0.4,-0.26,-49.14,2.17,-0.42
-0.25,-0.69,-0.28,-53.34,12.25,-36.61
-0.11,-0.85,-0.24,-60.55,37.66,-73.92
-0.51,-0.71,0,-52.43,58.73,-86.24
-1.12,-0.4,0.42,-27.58,58.38,-70.84
-1.57,-0.15,0.62,11.83,48.44,-51.52
-1.54,-0.05,0.4,29.47,42.21,-41.09
-1.35,-0.06,0.18,36.47,66.01,-48.79
-1.36,-0.08,0,60.06,103.88,-60.41
-1.56,-0.11,-0.09,81.76,130.27,-58.8
-1.8,-0.67,-0.31,127.12,149.73,5.81
-1.15,-0.98,-0.56,161.98,100.73,14.35
-0.35,-1.36,-0.39,179.97,74.13,-22.68
-0.12,-1.71,-0.48,188.58,81.62,-58.52
-0.1,-1.7,-0.83,160.51,75.18,-81.41
-0.32,-1,-0.89,125.44,57.75,-66.92
-0.44,-0.55,-0.82,73.29,37.1,-69.65
-0.71,-0.37,-0.69,38.57,41.44,-65.38
-1.01,-0.23,-0.62,-5.95,40.53,-63.77
-1.17,-0.24,-0.56,-31.5,37.8,-60.9
-1.23,-0.24,-0.53,-31.78,33.74,-60.2
-1.32,-0.2,-0.51,-16.24,24.43,-68.67
-1.27,-0.11,-0.47,1.4,13.51,-79.03
-1.07,-0.23,-0.45,25.34,13.37,-87.85
-0.97,-0.26,-0.38,48.86,13.09,-95.9
-0.31,-0.72,-0.26,6.44,14.77,-4.83
-0.43,-0.8,-0.13,23.66,28.42,-17.99
-0.65,-0.6,0.03,36.89,39.97,-23.31
-0.83,-0.3,-0.05,33.18,44.31,-18.41
-1.14,0.17,-0.01,24.22,43.19,15.82
-1.55,0.55,0.32,12.32,38.01,46.69
-1.88,0.77,0.38,4.41,17.57,41.37
-1.86,1.1,0.6,-7.07,-17.36,42.7
-1.8,1.77,0.89,24.43,-15.47,55.79
-2.01,2.75,0.7,80.29,-4.48,52.92
-1.99,2.69,0.55,92.4,3.99,23.66
-1.68,1.64,0.3,52.08,2.73,17.43
-1.32,0.83,0.05,9.8,0.35,11.2
-1,0.07,-0.12,-25.62,-2.66,4.2
-0.69,-0.35,-0.27,-43.89,2.52,-13.37
-0.32,-0.68,-0.31,-52.08,13.23,-48.93
-0.11,-0.86,-0.31,-48.23,39.27,-85.75
-0.28,-0.79,-0.18,-21.42,72.94,-95.83
-0.9,-0.58,-0.01,-1.89,75.04,-87.29
-1.49,-0.43,0.23,-10.01,35.14,-65.66
-1.69,-0.39,0.31,-8.26,10.15,-25.76
-1.54,-0.25,0.11,11.2,23.1,-15.82
-1.46,-0.2,0.01,22.68,59.01,-32.13
-1.56,-0.06,-0.03,50.4,94.15,-47.88
-1.63,-0.18,-0.12,100.52,122.85,-42.21
-1.37,-0.44,-0.44,160.16,105.84,-10.64
-0.72,-0.79,-0.39,197.47,81.9,-6.51
-0.34,-1.51,-0.45,208.32,71.61,-43.19
-0.16,-1.91,-0.46,204.96,57.05,-73.78
-0.26,-1.83,-0.56,164.15,48.16,-67.97
-0.46,-0.91,-0.52,104.37,30.45,-60.27
-0.54,-0.53,-0.45,70.77,30.03,-59.57
-0.81,-0.25,-0.52,45.5,36.26,-57.82
-0.98,-0.17,-0.59,17.57,33.25,-54.95
-1.02,-0.18,-0.65,1.82,32.2,-52.78
-0.98,-0.15,-0.7,-4.62,30.66,-51.59
-1.01,-0.13,-0.72,-0.91,26.18,-55.72
-1.05,-0.17,-0.64,23.38,20.72,-61.25
-1.09,-0.23,-0.47,53.55,17.22,-68.74
-1.08,-0.25,-0.29,75.46,1.82,-76.37
-1.07,-0.1,-0.18,70.21,-7.98,-88.06
-1.02,-0.12,-0.23,49.91,-8.33,-92.33
-0.97,-0.13,-0.34,50.4,-12.39,-91.91
-0.88,-0.05,-0.29,40.6,-12.53,-90.51
-0.83,-0.17,-0.35,35.56,-10.08,-86.66
-0.85,-0.19,-0.34,36.26,-12.67,-84.84
-0.86,-0.21,-0.27,29.33,-7.7,-82.25
-0.88,-0.25,-0.21,29.68,-3.78,-80.64
-0.94,-0.25,-0.17,40.32,-4.27,-78.89
-0.93,-0.17,-0.09,42.07,-4.34,-74.34
-0.94,-0.11,-0.12,41.44,-0.28,-70.21
-0.94,-0.14,-0.15,39.62,4.76,-62.3
-0.95,-0.03,-0.14,45.78,15.19,-60.27
-0.97,0.04,-0.15,42.42,15.33,-57.82
-0.97,0.02,-0.21,39.41,12.11,-57.4
-0.95,-0.05,-0.24,35.91,14.84,-59.99
-0.94,-0.18,-0.27,30.66,15.89,-62.86
-0.95,-0.28,-0.29,26.11,13.37,-65.52
-0.95,-0.3,-0.3,23.31,10.71,-67.55
-0.94,-0.26,-0.29,19.74,7.49,-68.25
-0.93,-0.21,-0.28,17.43,6.72,-67.13
-0.94,-0.14,-0.28,16.24,7.91,-66.15
-0.99,-0.09,-0.29,15.75,8.12,-65.03
-1.01,-0.05,-0.29,16.8,7.56,-63.7
-1.05,-0.04,-0.3,17.57,6.51,-61.74
-1.11,-0.07,-0.31,15.96,4.06,-60.13
-1.16,-0.12,-0.3,10.64,-0.63,-56.56
-1.23,-0.13,-0.28,1.89,-8.26,-49
-1.26,-0.12,-0.25,-6.72,-18.83,-41.79
-1.23,-0.09,-0.21,-8.96,-27.3,-36.47
-1.21,-0.06,-0.16,-4.13,-31.57,-30.31
-1.21,-0.03,-0.09,-0.63,-37.87,-22.96
-1.21,-0.03,-0.04,-1.54,-42.28,-12.53
-1.26,0.01,0.04,-0.14,-42.7,3.57
-1.4,0.15,0.16,-0.49,-44.45,16.73
-1.59,0.25,0.3,13.79,-50.68,30.66
-1.62,0.35,0.31,49.7,-52.01,47.18
-1.58,0.5,0.13,82.74,-52.43,64.05
-1.57,0.56,0.07,78.68,-55.37,79.17
-1.55,0.54,-0.1,66.15,-55.58,91.49
-1.43,0.26,-0.27,43.12,-59.01,103.53
-1.2,0.15,-0.38,20.23,-59.71,110.46
-1,-0.14,-0.38,-5.25,-54.11,120.12
-0.91,-0.45,-0.23,-11.62,-38.43,115.29
-0.97,-0.75,-0.25,-26.88,-22.96,118.58
-1.03,-0.9,-0.35,-19.39,-18.55,119.49
-1.1,-0.99,-0.43,1.4,-8.12,122.64
-1.24,-0.92,-0.44,6.93,1.68,123.27
-1.4,-0.95,-0.54,-5.18,-33.6,124.25
-1.36,-0.99,-0.53,-9.59,-29.61,118.23
-1.17,-0.91,-0.42,7.7,-27.72,115.92
-1.07,-0.58,-0.33,10.85,-21.91,121.94
-0.96,-0.42,-0.25,13.86,-12.81,125.37
-1,-0.39,-0.29,6.51,-10.57,127.89
-0.95,-0.55,-0.28,-0.7,-16.31,133
-0.85,-0.62,-0.2,-7.07,-18.55,138.18
-0.76,-0.61,-0.13,-14.77,-17.29,143.36
-0.74,-0.6,-0.12,-24.5,-15.75,146.72
-0.74,-0.56,-0.1,-26.18,-16.8,144.69
-0.73,-0.54,-0.17,-28.63,-20.51,140.21
-0.72,-0.55,-0.25,-29.68,-26.67,131.18
-0.73,-0.47,-0.2,-36.68,-32.41,119.49
-0.67,-0.46,-0.15,-43.26,-34.86,105.56
-0.63,-0.43,-0.15,-49.49,-33.6,93.03
-0.61,-0.39,-0.11,-68.32,-28.63,78.75
-0.62,-0.41,-0.14,-86.45,-24.64,63.07
-0.54,-0.51,-0.21,-95.27,-24.99,52.22
-0.43,-0.62,-0.25,-97.02,-24.43,43.05
-0.34,-0.69,-0.26,-94.99,-17.5,35.42
-0.25,-0.76,-0.25,-90.79,-8.33,27.72
-0.23,-0.79,-0.29,-82.88,-1.4,20.37
-0.24,-0.8,-0.32,-69.72,3.64,13.65
-0.28,-0.8,-0.27,-50.4,3.92,8.54
-0.3,-0.76,-0.15,-32.55,5.25,-2.1
-0.44,-0.81,-0.02,-14.42,13.09,-12.25
-0.72,-0.63,0.09,3.57,20.65,-15.26
-0.77,-0.35,0.04,6.37,26.74,-10.92
-1.02,-0.02,0.08,4.41,29.75,11.55
-1.35,0.42,0.3,-5.53,28.49,38.64
-1.59,0.65,0.44,-13.16,15.26,41.65
-1.67,0.9,0.35,-19.81,-13.3,31.64
-1.66,1.54,0.68,-3.08,-20.09,36.54
-1.95,2.29,0.68,38.15,-7.42,42.7
-2.04,2.58,0.59,50.4,-7.63,26.74
-1.77,1.87,0.33,17.78,-6.65,16.45
-1.45,1.08,-0.03,-10.29,-10.85,12.95
-1.11,0.46,-0.22,-39.06,-12.6,10.43
-0.79,-0.05,-0.25,-55.37,-2.94,3.29
-0.54,-0.45,-0.37,-63.49,9.59,-22.75
-0.24,-0.76,-0.37,-58.59,28.77,-58.24
-0.3,-0.88,-0.19,-54.74,56.42,-90.02
-1.08,-0.73,0.1,-43.82,51.24,-84.84
-1.81,-0.47,0.51,-36.33,10.43,-48.72
-1.91,-0.14,0.27,-6.3,9.8,-5.67
-1.59,-0.07,0,17.43,30.38,-12.74
-1.42,0.02,0.14,38.43,78.75,-49.28
-1.25,-0.03,0.23,49.42,116.2,-74.55
-1.06,-0.5,-0.01,111.44,133.7,-57.4
-0.92,-1.06,-0.44,211.05,112.07,-7.07
-0.49,-1.18,-0.47,229.95,75.95,-11.34
-0.07,-1.91,-0.39,194.25,57.54,-65.38
-0.02,-2.13,-0.56,137.13,65.24,-87.99
-0.4,-1.53,-0.73,99.68,52.01,-68.53
-0.58,-0.74,-0.71,65.8,37.31,-71.4
-0.79,-0.47,-0.53,51.66,50.12,-59.92
-1.05,-0.19,-0.49,34.02,52.92,-58.17
-1.18,-0.12,-0.53,14.7,45.29,-54.67
-1.14,-0.12,-0.57,7.91,40.04,-50.89
-1.08,-0.07,-0.64,4.48,33.46,-54.18
-1.11,-0.04,-0.7,9.24,22.75,-62.65
-1.11,-0.09,-0.67,31.01,14.91,-70.28
-1.08,-0.08,-0.5,46.9,12.25,-79.59
-0.99,-0.17,-0.37,55.51,1.75,-87.22
-1,-0.15,-0.32,54.04,-6.58,-94.15
-1,-0.13,-0.33,49.14,-9.94,-96.81
-0.99,-0.06,-0.34,37.24,-16.24,-97.02
-0.73,-0.18,-0.33,24.15,-14.21,-93.87
-0.74,-0.32,-0.38,35.63,-12.04,-89.25
-0.78,-0.3,-0.28,27.37,-10.43,-84.63
-0.81,-0.31,-0.17,12.18,-8.19,-81.13
-0.87,-0.31,-0.1,10.36,-2.1,-78.47
-0.89,-0.27,-0.05,15.89,2.87,-77
-0.97,-0.22,-0.09,14.63,-1.89,-74.34
-0.91,-0.23,-0.01,29.54,17.15,-70.91
-0.96,-0.21,-0.01,49.35,23.94,-70.35
-1,-0.17,-0.13,54.11,23.94,-68.67
-0.97,-0.17,-0.22,54.88,23.45,-68.18
-0.96,-0.14,-0.26,51.17,22.61,-69.16
-0.95,-0.11,-0.26,47.46,21.28,-70.77
-0.91,-0.11,-0.23,43.96,20.09,-70.84
-0.89,-0.12,-0.23,38.29,19.6,-71.47
-0.89,-0.14,-0.27,29.82,20.44,-72.17
-0.91,-0.2,-0.33,23.94,18.62,-72.31
-0.97,-0.23,-0.36,17.57,15.82,-72.59
-1.03,-0.18,-0.35,13.93,12.04,-71.54
-1.06,-0.09,-0.31,12.46,7.7,-69.58
-1.09,-0.01,-0.27,11.97,5.25,-66.5
-1.12,0.05,-0.25,9.45,2.59,-63.07
-1.16,0.01,-0.25,7.28,1.12,-59.85
-1.2,-0.06,-0.27,3.43,-1.54,-54.6
-1.24,-0.1,-0.25,-5.04,-6.58,-44.66
-1.26,-0.09,-0.21,-14.35,-12.39,-36.82
-1.26,-0.09,-0.17,-16.59,-14.77,-29.75
-1.27,-0.05,-0.1,-8.68,-21.77,-24.08
-1.27,-0.05,-0.05,3.29,-26.25,-17.5
-1.28,-0.06,0,14.49,-30.17,-7.84
-1.34,-0.01,0.07,22.19,-32.97,3.08
-1.44,0.07,0.15,27.93,-37.17,18.62
-1.54,0.27,0.21,40.81,-42.35,35.42
-1.62,0.49,0.26,59.29,-56.77,51.52
-1.62,0.67,0.3,77.35,-66.43,66.92
-1.59,0.76,0.34,88.76,-67.34,79.38
-1.5,0.74,0.02,84.14,-62.72,93.8
-1.42,0.61,-0.2,63.84,-57.54,105.42
-1.31,0.42,-0.45,18.62,-59.43,111.09
-1.19,0.06,-0.53,-15.12,-65.24,120.26
-1.05,-0.23,-0.43,-23.31,-59.08,120.89
-1.04,-0.54,-0.4,-47.74,-41.72,124.67
-1,-0.81,-0.42,-55.02,-20.58,125.3
-1.05,-1.07,-0.58,-44.52,-8.19,134.4
-1.18,-1.19,-0.59,-30.1,-0.28,144.2
-1.45,-1.18,-0.67,-40.18,-20.09,144.2
-1.52,-1.22,-0.66,-38.92,-42.7,132.79
-1.29,-1.19,-0.66,-22.54,-49.42,127.47
-1.09,-0.91,-0.59,13.86,-44.1,136.36
-1.15,-0.56,-0.49,24.36,-38.43,140.14
-1.17,-0.43,-0.2,24.57,-40.04,138.04
-1,-0.52,-0.04,16.31,-36.68,134.68
-0.79,-0.58,-0.08,1.54,-28.07,134.61
-0.69,-0.56,-0.14,-13.44,-16.24,133.7
-0.7,-0.59,-0.16,-22.68,-15.82,131.32
-0.76,-0.61,-0.22,-29.96,-24.22,127.12
-0.72,-0.6,-0.16,-36.47,-35.98,121.1
-0.64,-0.61,-0.1,-36.4,-43.75,113.82
-0.61,-0.59,-0.09,-36.05,-46.48,104.37
-0.57,-0.57,-0.04,-45.43,-45.85,93.73
-0.53,-0.55,-0.07,-56.35,-44.24,83.79
-0.5,-0.54,-0.1,-67.48,-38.78,72.24
-0.45,-0.57,-0.16,-77.28,-35.77,57.68
-0.36,-0.61,-0.2,-82.11,-32.76,49.7
-0.26,-0.63,-0.23,-83.02,-24.5,42.77
-0.21,-0.68,-0.26,-78.61,-16.31,33.88
-0.2,-0.73,-0.28,-71.47,-12.32,25.13
-0.2,-0.77,-0.29,-59.01,-9.24,18.41
-0.24,-0.79,-0.27,-42.42,-8.05,12.81
-0.29,-0.78,-0.2,-20.86,-7.07,3.36
-0.39,-0.85,-0.09,-4.83,7.35,-4.76
-0.59,-0.71,0.05,16.31,19.39,-10.01
-0.72,-0.35,-0.03,14.07,34.72,-10.36
-1.07,0.17,-0.01,5.18,44.03,13.23
-1.43,0.58,0.27,-8.61,45.64,36.75
-1.67,0.82,0.26,-11.13,26.32,29.75
-1.77,0.96,0.42,-18.55,-17.71,22.61
-1.59,1.47,0.8,14.21,-13.3,24.71
-1.76,2.15,0.71,52.5,13.37,23.24
-1.93,2.32,0.44,58.94,16.24,16.38
-1.68,1.7,0.15,36.19,11.34,17.22
-1.39,1.02,-0.01,8.26,4.62,21.14
-1.08,0.33,-0.14,-20.23,-3.15,20.86
-0.8,-0.1,-0.15,-44.73,0.28,14.63
-0.61,-0.41,-0.26,-59.5,7.98,-13.16
-0.42,-0.69,-0.24,-62.16,19.81,-46.48
-0.58,-0.7,-0.05,-63.28,43.19,-69.02
-1.27,-0.48,0.3,-52.64,29.47,-62.16
-1.7,-0.14,0.55,-51.73,1.4,-35.84
-1.67,0.17,0.29,-33.67,6.09,-14.35
-1.37,0.06,0.17,-10.36,39.27,-40.32
-1.26,0.06,0.21,35.14,80.64,-85.12
-1.27,-0.15,0.13,45.78,122.71,-101.78
-1.34,-0.72,-0.25,92.82,145.67,-34.72
-0.83,-1.08,-0.91,173.18,83.02,23.59
-0.1,-1.39,-0.57,181.86,59.85,-22.82
0.03,-1.98,-0.38,163.59,83.65,-78.54
-0.06,-2.15,-0.67,89.32,87.57,-89.18
-0.42,-1.41,-0.76,64.26,59.57,-66.43
-0.57,-0.61,-0.6,51.45,44.87,-62.51
-0.83,-0.34,-0.5,38.08,46.48,-53.9
-1.1,-0.14,-0.46,13.02,41.3,-52.64
-1.19,-0.17,-0.49,-15.12,34.79,-50.33
-1.24,-0.21,-0.56,-11.62,31.71,-48.86
-1.27,-0.07,-0.59,-0.49,24.5,-60.62
-1.2,-0.04,-0.58,13.65,18.41,-71.96
-1.11,-0.09,-0.51,40.53,15.26,-85.61
-0.98,-0.17,-0.44,51.45,9.45,-91.84
-1.1,-0.15,-0.42,51.87,3.22,-95.97
-1.08,-0.09,-0.47,38.99,-11.55,-100.03
-0.94,-0.13,-0.42,36.19,-22.05,-102.76
-0.67,-0.14,-0.29,32.06,-20.02,-99.26
-0.62,-0.14,-0.16,5.25,-12.18,-91.7
-0.65,-0.32,-0.19,-11.41,-1.61,-85.68
-0.88,-0.36,-0.14,-5.81,0.14,-83.3
-1,-0.29,-0.1,-5.67,-5.39,-85.19
-1.02,-0.2,-0.12,2.59,-11.55,-86.17
-0.96,-0.18,-0.07,-4.55,-11.13,-79.94
-0.9,-0.01,-0.04,8.89,9.73,-76.44
-0.94,-0.08,-0.01,16.31,16.87,-74.48
-0.98,-0.09,-0.06,17.5,17.36,-72.73
-0.95,-0.13,-0.13,20.09,21.63,-71.47
-0.93,-0.2,-0.2,24.64,26.39,-70.98
-0.93,-0.24,-0.21,26.18,25.9,-71.96
-0.89,-0.27,-0.22,25.83,25.06,-72.31
-0.86,-0.27,-0.19,28.21,23.8,-72.52
-0.86,-0.27,-0.2,27.3,23.52,-73.15
-0.89,-0.26,-0.23,25.62,22.47,-73.85
-0.95,-0.23,-0.31,23.38,19.39,-74.13
-0.99,-0.16,-0.33,19.32,16.1,-72.66
-1.03,-0.06,-0.31,14.56,13.23,-71.68
-1.07,0.03,-0.29,8.05,9.59,-69.65
-1.09,0.05,-0.3,0.21,7.35,-66.29
-1.12,0,-0.33,-2.73,5.88,-63.21
-1.15,-0.09,-0.33,-7.42,3.78,-58.52
-1.19,-0.17,-0.27,-14.63,0.7,-51.24
-1.24,-0.21,-0.21,-16.03,-2.38,-42
-1.28,-0.21,-0.13,-9.66,-11.2,-36.4
-1.25,-0.22,-0.07,0.21,-21.14,-30.03
-1.2,-0.24,-0.06,15.12,-25.13,-21.98
-1.23,-0.18,-0.05,28,-26.39,-11.55
-1.32,-0.07,-0.01,35.56,-28.42,-1.96
-1.45,0.1,0.07,37.73,-29.4,9.59
-1.54,0.29,0.13,48.09,-37.66,22.75
-1.59,0.47,0.22,64.4,-50.68,35.07
-1.6,0.59,0.29,80.08,-61.67,49.28
-1.57,0.77,0.33,85.05,-66.85,64.75
-1.53,0.79,0.2,71.54,-67.83,77.07
-1.44,0.65,-0.07,46.48,-70.56,87.36
-1.37,0.46,-0.3,2.38,-73.85,96.11
-1.23,0.28,-0.38,-6.86,-74.69,103.11
-1.07,0.02,-0.36,-28.91,-65.1,107.24
-1.02,-0.36,-0.34,-40.74,-51.24,115.5
-0.99,-0.65,-0.39,-47.25,-39.9,125.09
-0.9,-0.88,-0.47,-55.09,-3.85,135.38
-1.05,-0.99,-0.52,-52.36,-7.84,146.93
-1.34,-0.94,-0.72,-56.42,-28.63,152.6
-1.42,-1.13,-0.65,-44.73,-32.83,146.37
-1.47,-1.24,-0.66,-34.58,-37.8,132.51
-1.31,-1.26,-0.66,-4.55,-46.76,129.71
-1.19,-0.75,-0.59,29.33,-43.12,135.66
-1.16,-0.51,-0.38,47.18,-43.12,136.29
-1.05,-0.5,-0.14,38.99,-38.36,133.56
-0.9,-0.59,-0.13,17.01,-32.41,133
-0.79,-0.53,-0.16,-4.62,-22.68,133.35
-0.7,-0.6,-0.17,-10.36,-21.42,131.95
-0.77,-0.57,-0.21,-19.04,-24.57,129.85
-0.75,-0.6,-0.24,-30.03,-35.84,128.31
-0.7,-0.58,-0.16,-32.41,-46.76,122.78
-0.65,-0.58,-0.08,-37.17,-49.91,115.01
-0.6,-0.59,-0.06,-46.13,-48.02,106.33
-0.57,-0.59,-0.04,-52.78,-43.89,95.9
-0.54,-0.57,-0.09,-63,-38.36,83.58
-0.54,-0.63,-0.18,-68.67,-36.89,67.34
-0.46,-0.69,-0.2,-69.51,-37.59,58.1
-0.33,-0.69,-0.16,-66.78,-33.81,49.35
-0.25,-0.72,-0.18,-67.48,-27.58,40.88
-0.23,-0.77,-0.21,-61.39,-19.88,31.5
-0.23,-0.79,-0.22,-53.76,-16.52,22.12
-0.24,-0.81,-0.22,-43.75,-15.19,13.02
-0.27,-0.76,-0.21,-23.8,-11.48,8.75
-0.33,-0.81,-0.13,-3.71,0.49,6.65
-0.54,-0.7,0.05,20.58,9.59,4.48
-0.64,-0.48,0.02,31.08,24.43,0.35
-0.79,-0.15,-0.04,32.62,41.65,5.53
-1.09,0.28,0.07,22.4,51.66,20.58
-1.46,0.65,0.34,6.79,42.7,36.12
-1.68,0.93,0.22,-8.33,9.03,18.76
-1.56,1.07,0.48,-20.23,-14.35,3.78
-1.69,1.53,0.75,0.56,-6.86,4.48
-1.97,2.09,0.67,40.53,1.26,7.7
-1.89,2.04,0.4,37.94,2.87,7
-1.54,1.36,0.15,14.07,3.92,14.28
-1.32,0.62,0,-12.32,2.59,17.57
-1.12,0.24,-0.02,-35.21,-1.12,19.39
-0.88,-0.04,-0.15,-50.68,-0.14,9.45
-0.61,-0.36,-0.37,-57.75,12.81,-13.16
-0.5,-0.59,-0.35,-52.22,32.2,-44.73
-0.88,-0.6,0.14,-52.15,37.03,-63.14
-1.83,-0.33,0.57,-36.12,16.52,-38.08
-1.97,0.14,0.41,-29.89,7.21,-8.05
-1.55,0.2,0.03,-2.31,18.55,-18.06
-1.14,-0.03,0.15,19.67,48.23,-55.79
-0.89,-0.1,0.15,38.5,86.45,-96.11
-0.7,-0.45,-0.05,65.8,107.73,-94.5
-0.56,-0.77,-0.36,124.81,99.54,-49.14
-0.49,-1.07,-0.57,192.78,88.13,-15.47
-0.22,-1.38,-0.57,132.93,78.12,-40.6
0.04,-1.92,-0.62,90.23,72.59,-83.86
-0.17,-2.05,-0.76,70.7,94.85,-86.38
-0.64,-1.22,-0.71,43.33,89.25,-74.83
-0.83,-0.64,-0.52,40.25,71.19,-72.73
-1.08,-0.35,-0.35,40.32,56.21,-61.46
-1.23,-0.2,-0.28,50.82,50.96,-52.92
-1.32,-0.09,-0.35,52.01,36.05,-51.1
-1.31,0.02,-0.43,39.2,29.82,-58.17
-1.21,0.07,-0.57,21.28,25.62,-67.9
-1.09,0.09,-0.67,15.75,21.35,-77.14
-1.02,-0.12,-0.64,26.25,15.47,-90.02
-0.95,-0.03,-0.53,38.5,7.77,-96.88
-0.91,-0.04,-0.43,40.53,-3.57,-101.29
-0.95,-0.05,-0.38,33.25,-10.92,-104.23
-0.96,-0.07,-0.39,15.12,-20.23,-102.76
-0.82,-0.18,-0.26,7.7,-23.73,-100.73
-0.76,-0.28,-0.43,-2.45,-21.21,-95.27
-0.75,-0.43,-0.32,5.25,-20.02,-89.88
-0.87,-0.38,-0.18,-9.31,-17.64,-91.49
-1.02,-0.34,-0.18,-21.77,-25.13,-91.98
-0.97,-0.21,-0.15,-23.17,-32.06,-92.33
-0.82,-0.25,-0.03,-24.29,-20.44,-86.38
-0.87,-0.16,0.03,-12.81,3.5,-82.81
-0.91,-0.16,0.04,0.77,15.26,-81.48
-0.95,-0.16,0.03,8.89,14.49,-77.77
-0.96,-0.21,0,14.77,20.09,-74.34
-0.96,-0.24,-0.08,22.75,25.06,-72.31
-0.96,-0.25,-0.14,30.31,25.13,-71.05
-0.92,-0.25,-0.18,31.29,24.5,-70.21
-0.75,-0.27,-0.21,28.98,24.71,-70.21
-0.88,-0.31,-0.24,27.09,24.85,-70.63
-0.91,-0.32,-0.25,24.36,24.57,-71.96
-0.96,-0.31,-0.27,22.4,23.03,-73.43
-1.03,-0.25,-0.28,19.25,19.53,-74.69
-1.1,-0.18,-0.27,15.89,14.63,-73.64
-1.14,-0.04,-0.24,10.29,9.52,-72.66
-1.16,0.06,-0.22,3.36,4.06,-70.49
-1.17,0.12,-0.22,-3.43,-0.35,-67.55
-1.19,0.09,-0.23,-13.51,-3.01,-65.59
-1.19,-0.01,-0.25,-22.26,-6.79,-61.11
-1.21,-0.11,-0.2,-31.43,-9.94,-53.41
-1.24,-0.17,-0.1,-34.16,-13.23,-41.93
-1.26,-0.15,0,-21.77,-16.73,-35.49
-1.24,-0.11,0.05,-1.61,-26.04,-26.95
-1.19,-0.1,0.03,23.87,-28.84,-0.07
-1.23,-0.05,0,38.08,-26.32,-4.2
-1.35,0.06,0.05,42.84,-27.79,7.49
-1.53,0.17,0.09,44.59,-34.58,17.43
-1.65,0.29,0.13,56.56,-47.11,29.82
-1.63,0.48,0.17,63.77,-63.63,42.14
-1.5,0.68,0.25,66.99,-74.48,56.98
-1.41,0.77,0.12,61.32,-72.87,66.57
-1.39,0.54,-0.24,39.2,-62.51,80.01
-1.43,0.38,-0.56,17.43,-63.07,92.75
-1.28,0.19,-0.68,-7.14,-76.23,101.15
-1.07,-0.08,-0.56,-34.3,-76.79,109.69
-0.86,-0.35,-0.36,-81.76,-57.47,123.62
-0.87,-0.65,-0.47,-99.26,-37.87,133.35
-1.05,-0.96,-0.65,-82.04,-28.35,143.85
-1.28,-0.98,-0.56,-57.33,-30.1,149.1
-1.4,-1.08,-0.42,-48.51,-27.3,143.36
-1.5,-1.29,-0.4,-30.31,-34.79,134.68
-1.45,-1.25,-0.47,-5.46,-32.13,127.54
-1.22,-1.01,-0.61,5.39,-27.58,131.6
-1.11,-0.75,-0.57,14.63,-27.51,139.58
-1.08,-0.66,-0.39,27.93,-30.59,141.05
-1.02,-0.64,-0.27,17.5,-35.98,141.12
-0.81,-0.55,-0.21,-0.14,-31.57,140.21
-0.69,-0.48,-0.12,-20.44,-24.01,138.25
-0.66,-0.53,-0.14,-28.07,-19.74,137.55
-0.73,-0.54,-0.12,-40.46,-19.88,137.69
-0.72,-0.55,-0.17,-49.49,-28.77,137.06
-0.73,-0.58,-0.17,-50.54,-37.17,127.96
-0.73,-0.59,-0.11,-54.11,-40.18,118.65
-0.67,-0.62,-0.1,-59.99,-41.3,109.69
-0.63,-0.61,-0.12,-67.13,-41.16,100.03
-0.63,-0.59,-0.18,-66.5,-42.49,88.62
-0.6,-0.57,-0.18,-70.98,-45.78,77.63
-0.56,-0.6,-0.17,-79.59,-47.88,64.05
-0.44,-0.68,-0.21,-77.56,-42.91,55.93
-0.33,-0.73,-0.21,-84,-38.36,52.08
-0.28,-0.8,-0.25,-78.68,-25.06,42.91
-0.29,-0.85,-0.27,-70.98,-18.9,34.16
-0.29,-0.88,-0.13,-60.9,-17.36,24.85
-0.25,-0.84,-0.21,-52.85,-13.79,15.4
-0.3,-0.79,-0.19,-39.97,-4.69,16.1
-0.39,-0.84,-0.09,-20.51,-2.31,11.06
-0.56,-0.73,0.05,-1.68,8.68,5.11
-0.74,-0.51,0.09,15.19,22.61,1.68
-0.92,-0.2,-0.02,24.92,31.43,10.36
-1.07,0.2,0.06,26.25,36.96,27.65
-1.32,0.59,0.36,13.65,39.62,37.94
-1.6,0.76,0.33,-3.08,13.51,20.79
-1.59,0.98,0.55,-4.62,-7.21,12.81
-1.77,1.52,0.83,15.82,-0.49,21.56
-2.01,2.19,0.71,59.29,8.19,31.08
-1.93,2.31,0.51,57.89,9.73,24.99
-1.65,1.61,0.18,32.48,5.95,29.47
-1.4,0.9,-0.04,1.89,-2.17,28.14
-1.13,0.25,-0.07,-22.89,-6.58,27.37
-0.87,-0.05,-0.11,-39.9,-3.64,19.11
-0.63,-0.41,-0.21,-49.07,1.47,-0.28
-0.46,-0.74,-0.18,-48.72,6.86,-29.19
-0.64,-0.98,0.22,-59.71,9.52,-61.46
-1.18,-0.77,0.4,-48.09,8.61,-55.65
-1.52,-0.14,0.36,-26.95,12.81,-28.42
-1.44,0.14,0.06,7.63,25.9,-35.91
-1.14,0.09,0.02,39.9,60.9,-62.51
-1.04,0.09,0.05,56.84,98,-99.4
-0.95,-0.09,0.03,66.57,134.05,-115.85
-0.9,-0.53,-0.25,119.35,141.47,-84.77
-1.02,-0.97,-0.56,160.44,120.19,-17.43
-0.55,-1.28,-0.62,151.27,64.82,-19.81
-0.17,-1.65,-0.41,124.39,55.86,-62.3
-0.18,-1.66,-0.45,89.74,78.19,-74.48
-0.57,-1.12,-0.61,73.85,88.76,-64.33
-0.79,-0.76,-0.69,77,75.6,-59.78
-0.96,-0.38,-0.51,66.92,60.97,-58.38
-1.09,-0.27,-0.4,45.57,54.18,-49.91
-1.16,-0.2,-0.43,39.76,50.19,-46.55
-1.19,-0.16,-0.49,34.65,40.18,-47.53
-1.12,-0.11,-0.57,25.55,37.03,-53.41
-1.09,-0.01,-0.67,12.11,27.3,-63.28
-1.07,-0.01,-0.72,12.74,15.12,-73.01
-0.98,-0.03,-0.6,23.17,10.01,-82.95
-0.89,-0.07,-0.45,33.11,9.31,-91.49
-0.92,-0.11,-0.36,34.09,8.33,-97.3
-1.03,-0.19,-0.37,38.08,-0.98,-99.75
-1.05,-0.25,-0.42,41.09,-15.61,-100.03
-0.87,-0.26,-0.36,25.13,-24.99,-96.39
-0.73,-0.28,-0.25,1.89,-18.76,-91.84
-0.75,-0.48,-0.32,4.13,-12.18,-84.7
-0.86,-0.4,-0.23,4.48,-10.57,-83.3
-0.92,-0.31,-0.17,1.12,-9.66,-83.65
-0.89,-0.23,-0.14,2.59,-10.92,-83.86
-0.88,-0.15,-0.14,5.95,-7.35,-82.25
-0.83,-0.23,-0.04,13.86,6.44,-76.3
-0.91,-0.12,0.02,22.68,16.31,-74.13
-0.93,-0.09,0.01,31.5,21.49,-69.93
-0.98,-0.02,0,39.83,20.79,-65.73
-0.97,-0.01,-0.06,40.32,23.17,-62.65
-0.97,-0.05,-0.15,35.91,25.27,-61.32
-0.95,-0.14,-0.23,31.29,26.04,-61.39
-0.93,-0.21,-0.24,27.58,25.62,-62.09
-0.91,-0.24,-0.21,23.94,23.73,-63.35
-0.9,-0.28,-0.21,22.68,22.61,-66.01
-0.91,-0.29,-0.25,23.17,22.89,-68.88
-0.95,-0.27,-0.31,22.75,21.28,-70.84
-0.99,-0.22,-0.36,20.79,18.34,-71.26
-1.02,-0.15,-0.38,16.17,14,-70.77
-1.04,-0.07,-0.36,11.41,9.38,-69.58
-1.07,-0.01,-0.32,6.65,6.16,-68.46
-1.1,0,-0.3,2.17,4.27,-66.01
-1.14,-0.05,-0.31,-2.52,-17.15,-63.14
-1.17,-0.11,-0.29,-10.92,-5.32,-57.33
-1.22,-0.12,-0.22,-23.45,-9.45,-49.49
-1.26,-0.13,-0.15,-25.41,-14.56,-41.65
-1.26,-0.13,-0.08,-18.55,-21.98,-35.84
-1.23,-0.15,-0.04,-7.49,-29.12,-29.47
-1.26,-0.19,-0.01,4.62,-31.64,-18.48
-1.32,-0.15,0.05,18.62,-33.81,-9.03
-1.44,-0.05,0.14,31.43,-31.78,0.63
-1.53,0.11,0.16,52.22,-29.82,12.74
-1.6,0.3,0.09,68.39,-36.82,25.41
-1.61,0.45,0.04,73.29,-49.63,40.18
-1.62,0.68,0.1,67.41,-66.43,56.28
-1.62,0.78,0.17,54.6,-78.19,72.87
-1.53,0.73,0.03,43.12,-81.2,85.61
-1.42,0.57,-0.22,21.14,-81.2,96.04
-1.22,0.31,-0.39,-13.79,-82.67,105.49
-0.99,0.05,-0.26,-39.2,-80.78,111.02
-0.89,-0.32,-0.33,-52.85,-61.95,116.41
-0.89,-0.7,-0.35,-51.59,-41.86,121.73
-0.88,-0.96,-0.44,-46.27,-24.85,131.32
-1.05,-1.04,-0.57,-32.55,-11.55,141.68
-1.22,-1.09,-0.6,-22.96,-14.98,146.02
-1.47,-1.1,-0.63,-24.71,-33.18,143.5
-1.48,-1.19,-0.57,-16.66,-41.37,132.23
-1.37,-1.09,-0.55,-6.86,-40.81,125.02
-1.13,-0.71,-0.51,15.96,-28.7,130.2
-1.1,-0.49,-0.44,27.37,-28,133.35
-1.09,-0.49,-0.32,26.74,-29.68,133.63
-0.94,-0.5,-0.29,-0.56,-31.08,134.75
-0.78,-0.5,-0.22,-16.59,-26.6,136.29
-0.73,-0.55,-0.16,-28.35,-21.91,138.04
-0.74,-0.55,-0.16,-40.81,-20.09,136.85
-0.72,-0.58,-0.2,-45.29,-27.09,135.66
-0.73,-0.6,-0.22,-47.81,-40.67,129.99
-0.73,-0.64,-0.23,-40.46,-48.3,122.01
-0.73,-0.59,-0.12,-45.29,-48.23,110.74
-0.66,-0.63,-0.05,-50.54,-43.75,101.57
-0.6,-0.63,-0.11,-54.11,-39.9,92.26
-0.59,-0.6,-0.16,-58.1,-38.5,79.59
-0.55,-0.61,-0.16,-65.1,-37.87,68.67
-0.44,-0.61,-0.16,-70.49,-33.46,59.43
-0.35,-0.67,-0.22,-68.04,-24.85,50.4
-0.29,-0.67,-0.22,-72.38,-21.14,41.37
-0.27,-0.72,-0.22,-65.94,-15.33,31.64
-0.24,-0.75,-0.23,-59.85,-11.9,21
-0.24,-0.78,-0.23,-48.79,-6.72,13.93
-0.3,-0.76,-0.2,-31.22,-0.28,10.64
-0.45,-0.79,-0.07,-6.02,-0.42,5.46
-0.53,-0.68,0.05,16.52,9.17,2.73
-0.64,-0.46,-0.01,21.77,20.65,3.85
-0.81,-0.18,-0.04,29.33,29.82,16.87
-1.03,0.22,0.05,23.87,38.99,38.99
-1.36,0.63,0.36,9.87,41.51,43.12
-1.74,0.85,0.26,-4.55,9.31,26.81
-1.52,1.07,0.45,-11.41,-9.31,17.71
-1.7,1.61,0.79,30.31,-2.52,23.1
-2.01,2.29,0.74,67.27,3.36,29.26
-1.97,2.3,0.35,59.92,1.54,22.33
-1.64,1.26,0.11,30.03,-0.07,25.27
-1.36,0.68,-0.05,-3.43,-3.57,22.75
-0.99,0.2,-0.09,-33.11,-8.33,22.05
-0.74,-0.11,-0.05,-55.23,-8.12,13.93
-0.5,-0.4,-0.14,-63.49,-5.81,-7.14
-0.23,-0.73,-0.38,-57.54,3.64,-41.16
-0.03,-0.89,-0.4,-60.34,24.64,-78.54
-0.16,-0.76,-0.31,-63.91,58.17,-99.26
-0.69,-0.58,-0.08,-41.37,80.08,-95.55
-1.5,-0.46,0.22,-22.05,55.93,-78.19
-1.91,-0.17,0.44,1.47,24.36,-41.44
-1.89,0.13,0.21,11.9,27.02,-19.67
-1.75,0.14,0.09,23.1,50.82,-35.7
-1.72,0.18,0.19,42.91,89.25,-73.36
-1.71,0.15,0.17,57.96,121.31,-76.16
-1.58,-0.31,-0.03,91.21,133.84,-31.85
-0.82,-0.81,-0.61,147.35,71.68,3.57
-0.23,-1.14,-0.5,192.08,42.98,-19.88
0.08,-1.6,-0.37,170.45,52.43,-54.53
0.11,-1.85,-0.61,126.28,63.14,-73.85
-0.29,-1.13,-0.8,88.48,57.47,-58.94
-0.41,-0.72,-0.63,56.07,42.56,-62.58
-0.66,-0.54,-0.61,31.01,54.46,-55.23
-0.98,-0.38,-0.62,17.99,55.72,-54.46
-1.17,-0.31,-0.6,5.25,48.3,-52.08
-1.25,-0.23,-0.52,0.56,36.19,-49
-1.31,-0.1,-0.48,3.22,20.72,-52.78
-1.28,0.02,-0.4,13.79,10.29,-63.21
-1.21,0.02,-0.34,34.72,9.66,-73.43
-1.1,0.04,-0.31,53.69,7.42,-85.96
-1,-0.02,-0.33,55.51,4.34,-95.97
-1.04,-0.02,-0.41,49.56,-3.15,-99.89
-1.02,-0.01,-0.5,38.36,-13.65,-102.62
-0.87,-0.06,-0.38,26.04,-10.01,-101.85
-0.73,-0.26,-0.47,8.12,-7.91,-94.64
-0.73,-0.32,-0.45,42.77,-15.68,-91.7
-0.84,-0.32,-0.26,31.85,-16.1,-95.2
-0.83,-0.31,-0.14,-5.32,-20.3,-90.79
-0.81,-0.3,-0.05,-21.42,-17.92,-84.21
-0.9,-0.2,-0.02,-35.42,-20.44,-79.59
-0.83,-0.24,0.02,-12.39,4.13,-75.11
-0.9,-0.15,0.05,8.61,10.99,-73.92
-0.97,-0.17,-0.06,7.84,16.1,-71.68
-0.98,-0.19,-0.1,18.97,21.28,-72.45
-0.98,-0.23,-0.16,26.74,23.45,-72.45
-0.97,-0.26,-0.2,28.21,23.03,-72.87
-0.95,-0.27,-0.19,30.8,22.4,-73.57
-0.92,-0.27,-0.17,33.25,21.98,-73.36
-0.89,-0.27,-0.19,35.91,23.17,-72.59
-0.88,-0.23,-0.23,35.14,24.43,-70.28
-0.91,-0.2,-0.29,33.04,24.43,-67.97
-0.97,-0.14,-0.34,27.44,22.12,-66.78
-1.03,-0.06,-0.36,19.6,17.71,-65.73
-1.08,0,-0.34,13.86,13.79,-65.66
-1.13,0.04,-0.3,8.4,9.66,-65.73
-1.16,0.02,-0.29,1.61,4.06,-64.19
-1.19,-0.05,-0.31,-4.97,-0.84,-60.83
-1.19,-0.12,-0.31,-15.12,-4.13,-55.16
-1.21,-0.16,-0.25,-21.21,-6.09,-48.16
-1.24,-0.19,-0.17,-22.33,-10.5,-41.02
-1.24,-0.21,-0.1,-14.56,-17.71,-35.28
-1.24,-0.23,-0.06,-0.35,-23.94,-28.42
-1.2,-0.23,-0.05,11.06,-29.4,-19.32
-1.22,-0.16,-0.02,19.67,-30.52,-9.31
-1.3,0.1,0.07,19.67,-31.85,3.99
-1.42,0.14,0.17,28.28,-33.95,14.84
-1.51,0.26,0.22,49.49,-37.52,25.97
-1.52,0.41,0.18,67.06,-44.24,37.59
-1.53,0.56,0.17,71.68,-55.09,56.07
-1.5,0.73,0.21,66.36,-67.48,69.16
-1.44,0.67,0.13,53.34,-71.89,81.2
-1.33,0.46,-0.12,35.63,-65.73,93.59
-1.27,0.21,-0.31,15.68,-60.69,103.88
-1.16,0.03,-0.43,-8.05,-56.91,109.76
-1.01,-0.14,-0.44,-45.71,-55.3,113.96
-0.98,-0.54,-0.4,-56.56,-49.28,121.24
-1,-0.71,-0.38,-48.02,-35.35,128.59
-1.07,-0.83,-0.47,-40.67,-19.18,136.43
-1.22,-0.92,-0.5,-32.41,-14.35,143.78
-1.45,-0.96,-0.55,-36.61,-28.35,141.61
-1.51,-1.06,-0.52,-34.02,-44.17,135.38
-1.36,-1.17,-0.43,-15.96,-39.62,108.08
-1.19,-0.96,-0.47,0.49,-32.97,125.37
-1.05,-0.72,-0.42,25.9,-30.8,130.27
-1.11,-0.6,-0.33,41.65,-31.43,129.92
-0.99,-0.61,-0.22,28,-32.06,130.06
-0.84,-0.59,-0.16,11.83,-27.93,133.07
-0.73,-0.57,-0.11,-1.33,-23.38,136.99
-0.74,-0.58,-0.12,-10.5,-20.23,136.36
-0.75,-0.56,-0.11,-20.79,-20.93,133.98
-0.74,-0.57,-0.19,-28.07,-31.99,131.11
-0.73,-0.62,-0.19,-29.12,-39.27,125.37
-0.71,-0.64,-0.17,-23.66,-44.94,117.53
-0.67,-0.6,-0.04,-29.33,-41.23,106.61
-0.61,-0.59,-0.03,-38.64,-35.63,95.76
-0.55,-0.54,-0.12,-49.56,-31.08,81.06
-0.51,-0.54,-0.18,-59.36,-29.05,68.53
-0.47,-0.6,-0.23,-64.75,-27.72,57.61
-0.38,-0.63,-0.24,-64.96,-26.04,49.21
-0.3,-0.67,-0.22,-63.7,-19.39,41.72
-0.25,-0.71,-0.25,-60.9,-12.25,32.9
-0.24,-0.8,-0.31,-52.85,-7.63,23.52
-0.25,-0.78,-0.26,-52.29,-8.96,15.61
-0.27,-0.76,-0.25,-31.15,-6.37,13.16
-0.31,-0.7,-0.22,-13.37,-0.63,6.44
-0.45,-0.76,-0.12,9.17,9.1,1.19
-0.61,-0.63,0.02,24.64,21.42,-1.96
-0.75,-0.34,-0.02,27.09,34.51,-1.33
-1.01,0.15,-0.11,25.55,45.57,21.7
-1.31,0.55,0.03,13.72,40.46,44.8
-1.58,0.74,0.26,-3.85,22.33,42.28
-1.62,0.81,0.39,-14.35,-9.8,22.47
-1.51,1.21,0.79,-2.94,-13.58,16.94
-1.73,1.87,0.85,34.09,-2.66,20.93
-1.96,2.27,0.61,63,3.85,20.44
-1.76,1.84,0.32,55.44,2.8,20.51
-1.46,1.1,0.12,22.75,-0.49,23.66
-1.21,0.51,0.02,-6.16,-4.55,20.37
-0.97,0.07,0.01,-28.14,-8.19,18.83
-0.74,-0.35,-0.14,-44.24,-5.53,-0.77
-0.47,-0.69,-0.29,-49.91,5.25,-29.75
-0.24,-0.8,-0.35,-47.46,27.3,-62.16
-0.33,-0.73,-0.24,-41.65,54.53,-82.53
-0.79,-0.53,-0.07,-13.86,72.66,-81.76
-1.31,-0.28,0.22,1.54,54.53,-63.21
-1.7,-0.14,0.38,0.21,25.76,-23.45
-1.73,0.04,0.23,15.75,27.51,-27.86
-1.6,0.07,0.08,19.04,60.34,-45.64
-1.59,0.19,0.12,33.74,97.79,-77.49
-1.61,0.14,0.07,59.78,126.7,-88.41
-1.61,-0.25,-0.11,104.02,142.73,-47.74
-1.13,-0.69,-0.62,164.01,86.31,6.23
-0.28,-0.98,-0.39,179.97,50.33,-20.58
0.02,-1.67,-0.4,167.37,61.25,-51.94
0.06,-1.81,-0.51,140,67.9,-76.3
-0.29,-1.43,-0.76,104.58,58.24,-59.22
-0.42,-0.7,-0.74,60.55,37.59,-60.27
-0.55,-0.57,-0.52,47.74,52.29,-50.82
-0.88,-0.39,-0.55,31.22,57.05,-48.86
-1.11,-0.35,-0.59,14,49.7,-45.64
-1.19,-0.29,-0.58,7.42,42.98,-46.27
-1.24,-0.17,-0.55,7.14,29.19,-50.47
-1.22,-0.05,-0.51,12.6,18.2,-57.47
-1.15,-0.05,-0.48,31.15,14.35,-64.82
-1.1,-0.03,-0.37,48.16,15.33,-73.29
-0.99,-0.08,-0.38,52.01,12.81,-83.3
-0.96,-0.16,-0.43,61.04,7.14,-87.99
-1.03,-0.15,-0.51,57.12,-6.09,-89.88
-0.97,-0.16,-0.53,45.22,-15.89,-92.54
-0.77,-0.21,-0.4,43.75,-12.32,-92.05
-0.69,-0.15,-0.27,27.3,-6.51,-87.15
-0.76,-0.39,-0.37,30.24,-7.07,-81.13
-0.86,-0.36,-0.2,26.46,-10.71,-77.14
-0.91,-0.29,-0.13,11.62,-9.45,-75.11
-0.91,-0.27,-0.1,9.1,-8.05,-71.19
-0.92,-0.18,-0.08,4.9,-6.86,-67.13
-0.87,-0.19,-0.09,26.32,15.96,-63
-0.92,-0.11,-0.08,38.5,21.14,-61.74
-0.99,-0.07,-0.12,41.44,15.26,-61.39
-0.96,-0.06,-0.18,36.4,16.45,-59.15
-0.93,-0.1,-0.2,32.41,19.95,-58.52
-0.95,-0.16,-0.19,35.07,21.63,-57.82
-0.94,-0.25,-0.19,37.38,22.33,-57.89
-0.91,-0.32,-0.19,38.43,23.31,-58.03
-0.9,-0.33,-0.2,38.15,23.45,-58.73
-0.88,-0.31,-0.22,37.31,22.61,-60.27
-0.88,-0.27,-0.26,36.12,22.54,-61.88
-0.92,-0.24,-0.31,33.53,21.84,-62.93
-0.99,-0.2,-0.33,29.75,18.76,-63.98
-1.04,-0.14,-0.32,25.41,15.26,-64.61
-1.07,-0.04,-0.3,22.4,11.13,-64.12
-1.08,0.02,-0.29,17.64,7.49,-62.23
-1.12,0.02,-0.3,12.46,3.43,-58.87
-1.14,-0.02,-0.33,7.28,-2.17,-53.97
-1.13,-0.07,-0.3,0.56,-4.55,-46.83
-1.17,-0.09,-0.25,-4.62,-5.67,-37.24
-1.22,-0.1,-0.22,-4.97,-8.33,-25.9
-1.24,-0.09,-0.18,-0.84,-14.35,-19.04
-1.26,-0.09,-0.11,2.45,-28.28,-11.76
-1.23,-0.09,-0.03,7.49,-35.63,-2.03
-1.26,-0.03,0.07,17.71,-34.65,9.24
-1.35,0.06,0.19,30.1,-30.17,19.74
-1.54,0.17,0.24,54.95,-30.45,34.79
-1.59,0.29,0.14,78.61,-37.87,49.42
-1.61,0.46,0,78.47,-49.56,66.22
-1.64,0.56,0.04,61.6,-60.97,81.62
-1.61,0.58,0.01,47.32,-71.05,91.7
-1.41,0.4,-0.11,29.54,-74.55,100.1
-1.13,0.14,-0.2,16.94,-72.59,108.57
-0.92,-0.09,-0.3,-10.08,-60.2,117.32
-0.87,-0.34,-0.28,-33.39,-47.67,117.04
-0.96,-0.76,-0.26,-28.7,-32.2,119.35
-1.04,-0.95,-0.32,-15.96,-15.61,122.01
-1.13,-1.09,-0.34,2.94,1.96,126.07
-1.37,-1.06,-0.48,11.13,-11.55,127.54
-1.38,-1.02,-0.52,5.74,-28.84,132.09
-1.26,-0.94,-0.44,11.55,-34.23,126.21
-1.17,-0.93,-0.3,17.99,-31.22,116.41
-1.03,-0.82,-0.25,43.61,-22.54,112.42
-1.01,-0.53,-0.27,51.38,-24.36,111.79
-0.95,-0.54,-0.22,59.5,-23.73,113.12
-0.88,-0.55,-0.15,49.07,-21.35,117.6
-0.8,-0.55,-0.11,29.47,-17.64,122.92
-0.78,-0.54,-0.11,15.33,-15.68,128.52
-0.77,-0.54,-0.06,6.3,-14.7,130.69
-0.75,-0.53,-0.06,0.21,-16.94,132.58
-0.77,-0.53,-0.1,-9.8,-23.1,131.46
-0.75,-0.6,-0.12,-7.84,-29.96,127.12
-0.74,-0.59,-0.08,-6.58,-32.27,119.14
-0.69,-0.58,-0.1,-6.51,-34.16,107.31
-0.63,-0.54,-0.12,-9.59,-35.63,97.72
-0.6,-0.49,-0.11,-17.29,-30.59,86.31
-0.57,-0.47,-0.13,-27.51,-27.86,74.41
-0.51,-0.54,-0.16,-35.49,-23.45,62.86
-0.45,-0.54,-0.21,-44.45,-20.3,54.32
-0.36,-0.61,-0.24,-42.7,-13.37,46.83
-0.31,-0.63,-0.27,-45.08,-8.68,36.4
-0.29,-0.66,-0.3,-37.24,-2.17,25.41
-0.3,-0.68,-0.3,-31.22,4.48,15.4
-0.33,-0.69,-0.28,-15.61,7.84,10.36
-0.34,-0.6,-0.25,2.17,10.85,1.33
-0.41,-0.62,-0.22,19.04,20.16,-8.4
-0.51,-0.59,-0.07,32.13,28.7,-15.54
-0.64,-0.42,-0.06,36.19,41.3,-17.29
-0.87,-0.06,-0.15,36.19,47.46,-0.28
-1.11,0.35,-0.11,30.52,43.61,28
-1.38,0.7,-0.06,12.11,36.96,43.89
-1.53,0.91,0,-13.37,16.38,41.09
-1.58,1.05,0.31,-5.88,-1.75,37.66
-1.66,1.5,1.06,21.91,0.07,30.17
-2.03,2.22,1.04,60.69,-4.41,41.3
-2.16,2.45,0.61,66.85,-20.65,26.11
-1.64,1.44,0.29,34.79,-19.18,16.73
-1.39,0.73,0.11,-7.56,-15.54,8.96
-1.05,0.22,-0.01,-48.93,-15.75,5.53
-0.71,-0.22,-0.21,-64.33,-4.13,-3.01
-0.43,-0.65,-0.38,-69.58,13.02,-35.98
-0.21,-0.83,-0.43,-62.09,31.99,-69.16
-0.22,-0.75,-0.33,-43.05,60.27,-85.75
-0.64,-0.51,-0.2,-17.01,77.21,-82.81
-1.17,-0.37,0.05,-3.15,61.81,-68.11
-1.6,-0.45,0.28,7.21,32.69,-48.16
-1.72,-0.44,0.31,24.43,25.2,-34.86
-1.69,-0.23,0.15,26.11,55.65,-40.39
-1.69,-0.01,0.1,31.71,87.08,-58.03
-1.59,0.02,-0.05,56.21,105.7,-59.78
-1.47,-0.18,-0.3,109.13,118.23,-36.89
-1.04,-0.41,-0.4,148.54,85.82,-9.38
-0.47,-1.01,-0.34,174.3,65.24,-19.04
-0.18,-1.52,-0.48,182.14,74.13,-50.4
-0.15,-1.73,-0.58,161.77,73.57,-75.18
-0.39,-1.52,-0.86,103.81,52.29,-62.09
-0.41,-0.78,-0.86,68.6,26.53,-58.73
-0.48,-0.57,-0.49,53.76,43.96,-50.96
-0.79,-0.39,-0.51,41.58,52.64,-46.69
-1.02,-0.31,-0.53,20.23,45.78,-43.61
-1.11,-0.27,-0.51,10.99,36.96,-44.52
-1.14,-0.16,-0.5,9.52,26.67,-49.56
-1.12,-0.13,-0.52,21.56,16.66,-53.48
-1.06,-0.09,-0.48,42.21,15.68,-56.84
-1.06,-0.03,-0.39,56.21,18.48,-62.72
-1.01,-0.07,-0.41,63.49,13.02,-72.31
-0.99,-0.12,-0.44,67.41,5.6,-76.79
-1.01,-0.1,-0.48,62.02,-5.95,-77.77
-0.92,-0.12,-0.48,50.33,-11.06,-78.54
-0.8,-0.12,-0.36,41.37,-4.9,-78.05
-0.8,-0.23,-0.48,32.97,-1.26,-74.13
-0.84,-0.35,-0.36,47.11,-5.25,-71.26
-0.89,-0.35,-0.26,39.13,-7.14,-70.49
-0.88,-0.34,-0.18,32.34,-7.77,-67.62
-0.86,-0.28,-0.14,33.32,-4.48,-63.84
-0.89,-0.15,-0.13,34.23,-2.03,-60.62
-0.86,-0.19,-0.08,37.24,8.61,-54.67
-0.92,-0.08,-0.1,47.53,21.56,-52.99
-0.98,-0.06,-0.18,51.59,23.73,-50.75
-1.01,-0.1,-0.22,52.01,21.7,-47.88
-1,-0.14,-0.26,49.63,21.56,-46.76
-0.96,-0.19,-0.27,49.28,22.54,-46.13
-0.92,-0.23,-0.28,52.15,23.03,-46.34
-0.89,-0.26,-0.27,53.41,23.1,-46.9
-0.85,-0.26,-0.24,52.22,22.54,-47.88
-0.83,-0.28,-0.25,50.54,22.96,-50.68
-0.84,-0.31,-0.27,47.81,22.47,-53.34
-0.89,-0.32,-0.28,41.86,19.04,-56.21
-0.91,-0.29,-0.28,34.09,16.45,-58.52
-0.93,-0.23,-0.27,28.35,16.24,-59.71
-0.99,-0.17,-0.26,24.15,15.54,-61.11
-1.02,-0.13,-0.26,21.63,14,-61.18
-1.03,-0.06,-0.27,21,12.18,-59.29
-1.04,-0.03,-0.3,21.35,10.29,-56.14
-1.09,-0.05,-0.34,23.45,5.81,-53.41
-1.12,-0.1,-0.35,21.77,0.14,-49.14
-1.14,-0.11,-0.31,12.18,-3.99,-40.74
-1.18,-0.08,-0.25,6.72,-6.02,-30.59
-1.22,-0.05,-0.22,6.44,-10.92,-22.4
-1.21,0.03,-0.15,3.92,-22.4,-12.25
-1.19,0.04,-0.05,-3.99,-35.91,-2.24
-1.18,0.06,0.1,-2.73,-40.32,7.98
-1.28,0.12,0.35,13.23,-37.59,18.13
-1.45,0.14,0.54,49.14,-31.57,28.63
-1.57,0.24,0.48,100.73,-29.12,42.91
-1.56,0.43,0.21,127.89,-33.53,62.93
-1.61,0.63,0.17,115.43,-49.56,78.26
-1.58,0.64,0.11,97.23,-62.09,89.88
-1.47,0.55,-0.08,77,-59.99,101.01
-1.41,0.47,-0.32,40.25,-57.68,108.71
-1.38,0.2,-0.54,5.95,-59.5,115.92
-1.31,-0.05,-0.55,-14.7,-74.13,124.39
-1.14,-0.58,-0.4,-39.13,-60.55,135.87
-1.19,-0.86,-0.42,-50.61,-37.03,138.67
-1.35,-1.16,-0.45,-46.76,-8.19,140.7
-1.57,-1.37,-0.41,-5.95,-5.6,144.27
-1.55,-1.38,-0.47,3.15,-26.88,151.9
-1.38,-1.23,-0.55,21,-38.71,150.57
-1.28,-1.11,-0.53,32.41,-43.12,139.44
-1.03,-1.04,-0.53,54.46,-27.79,130.55
-1.05,-0.69,-0.53,57.96,-28.7,129.43
-1.01,-0.52,-0.26,64.33,-32.97,125.09
-0.92,-0.49,-0.02,57.33,-26.46,122.15
-0.76,-0.48,-0.03,36.26,-16.59,121.8
-0.75,-0.42,-0.12,11.55,-9.52,122.99
-0.77,-0.47,-0.14,-3.57,-11.13,124.81
-0.73,-0.49,-0.11,-13.93,-15.89,121.31
-0.71,-0.53,-0.16,-26.04,-26.46,121.45
-0.66,-0.59,-0.15,-34.65,-34.93,119.35
-0.63,-0.6,-0.08,-30.8,-36.54,112.14
-0.59,-0.61,-0.09,-33.04,-40.11,104.3
-0.55,-0.58,-0.1,-40.88,-40.39,96.04
-0.52,-0.54,-0.13,-46.97,-36.54,85.12
-0.51,-0.5,-0.19,-54.04,-34.72,73.57
-0.44,-0.52,-0.23,-58.8,-29.54,63
-0.34,-0.61,-0.26,-60.06,-25.55,55.72
-0.28,-0.59,-0.22,-58.94,-19.74,49.63
-0.21,-0.66,-0.24,-55.51,-12.67,43.4
-0.21,-0.7,-0.29,-51.87,-0.91,32.97
-0.26,-0.8,-0.34,-44.87,4.48,20.02
-0.3,-0.83,-0.35,-26.95,6.72,11.13
-0.33,-0.77,-0.28,-12.6,12.04,5.25
-0.36,-0.71,-0.21,0.49,23.45,-6.51
-0.51,-0.7,-0.1,18.27,29.68,-16.94
-0.63,-0.56,0,27.09,38.78,-22.75
-0.78,-0.27,-0.08,26.18,48.3,-0.7
-1.04,0.17,-0.08,25.97,44.38,12.74
-1.42,0.59,0.08,16.03,33.6,42.91
-1.63,0.82,0.24,3.92,17.57,48.02
-1.68,1.01,0.27,-6.58,-9.66,33.53
-1.61,1.31,0.64,11.69,-9.17,32.34
-1.9,2.05,0.87,52.08,4.34,36.96
-2.17,2.69,0.68,71.89,-4.76,29.96
-1.92,1.95,0.41,47.67,-11.2,17.99
-1.49,1.11,0.14,13.44,-12.6,15.12
-1.16,0.51,-0.02,-20.58,-13.23,11.34
-0.81,-0.01,-0.12,-46.34,-7.84,3.78
-0.54,-0.42,-0.37,-57.68,5.18,-17.43
-0.35,-0.76,-0.29,-61.53,16.1,-49.63
-0.29,-0.92,-0.18,-59.15,33.6,-85.12
-0.68,-0.71,0.01,-36.19,48.09,-81.48
-1.51,-0.39,0.25,-17.43,25.13,-57.05
-1.83,-0.2,0.37,-26.39,4.97,-24.29
-1.76,-0.08,0.19,-5.67,17.57,-11.62
-1.51,-0.1,0.05,7.35,50.4,-32.9
-1.44,0.02,0.15,23.66,94.64,-87.71
-1.27,-0.02,0.08,43.33,122.5,-89.95
-1.16,-0.48,-0.27,100.87,135.45,-54.95
-0.88,-0.87,-0.73,193.06,81.27,-6.58
-0.33,-0.92,-0.57,209.16,43.12,-16.38
0.13,-1.48,-0.52,180.46,45.08,-49.21
0.08,-1.65,-0.55,125.44,62.58,-72.94
-0.32,-1.47,-0.77,74.97,65.8,-56.49
-0.49,-0.66,-0.58,39.55,44.03,-59.64
-0.73,-0.52,-0.39,33.11,58.73,-46.69
-1.04,-0.34,-0.43,30.59,57.54,-42.14
-1.23,-0.29,-0.5,19.88,42.77,-38.92
-1.24,-0.21,-0.51,8.12,35.21,-42.21
-1.2,-0.1,-0.55,1.05,28.42,-48.58
-1.14,-0.1,-0.6,10.5,21.07,-56.49
-1.07,-0.1,-0.57,31.57,16.24,-63.98
-1.02,-0.14,-0.47,52.64,17.01,-72.59
-0.98,-0.17,-0.41,57.96,10.85,-80.78
-0.99,-0.21,-0.41,61.32,4.55,-84.56
-1.05,-0.16,-0.45,56,-5.18,-85.82
-1.02,-0.08,-0.44,38.78,-18.2,-85.82
-0.8,-0.21,-0.36,44.52,-18.69,-82.32
-0.67,-0.2,-0.26,44.17,-9.87,-76.23
-0.72,-0.22,-0.21,26.53,-2.1,-71.19
-0.83,-0.36,-0.27,27.02,-3.99,-66.64
-0.92,-0.29,-0.18,32.13,-3.64,-65.38
-0.96,-0.11,-0.09,24.71,-3.01,-65.45
-0.97,-0.14,-0.13,31.15,-0.07,-63.63
-0.98,-0.09,-0.14,42.49,8.75,-60.83
-1,-0.13,-0.17,44.24,11.76,-57.54
-0.95,-0.13,-0.2,46.13,18.55,-56.56
-0.94,-0.14,-0.21,39.69,17.92,-56.77
-0.94,-0.16,-0.24,33.53,16.66,-57.89
-0.91,-0.21,-0.25,34.02,17.57,-59.01
-0.9,-0.23,-0.21,34.65,17.57,-60.48
-0.9,-0.25,-0.2,33.46,15.96,-60.48
-0.87,-0.28,-0.18,32.97,16.24,-61.25
-0.85,-0.3,-0.2,32.62,17.71,-61.46
-0.85,-0.33,-0.23,34.3,20.23,-61.88
-0.85,-0.33,-0.28,36.68,21.35,-62.02
-0.9,-0.28,-0.32,36.54,21.84,-62.23
-0.99,-0.2,-0.31,36.12,21,-62.79
-1.04,-0.12,-0.29,34.51,17.71,-62.79
-1.06,-0.05,-0.29,33.32,14,-61.81
-1.08,0.01,-0.31,28.98,10.29,-60.06
-1.1,0.02,-0.32,21.98,5.11,-57.96
-1.13,-0.01,-0.34,13.79,-0.49,-56.14
-1.15,-0.05,-0.32,1.89,-5.32,-52.78
-1.19,-0.08,-0.28,-11.48,-10.85,-44.59
-1.37,-0.09,-0.24,-23.03,-15.61,-35.28
-1.26,-0.09,-0.18,-23.45,-19.67,-28.21
-1.29,-0.07,-0.08,-18.41,-31.64,-20.72
-1.28,-0.08,0.08,-8.61,-40.88,-11.97
-1.32,-0.05,0.3,7.63,-42.7,-2.52
-1.4,0.12,0.42,38.64,-36.4,12.74
-1.5,0.19,0.35,78.12,-29.4,27.72
-1.6,0.4,0.2,106.47,-35.98,43.82
-1.65,0.57,0.11,104.93,-52.78,58.17
-1.61,0.72,0.17,88.76,-66.22,72.38
-1.57,0.75,0.1,73.78,-70.63,83.37
-1.48,0.64,-0.16,52.85,-67.83,95.62
-1.4,0.49,-0.43,21.14,-71.82,102.83
-1.28,0.18,-0.52,-4.62,-78.33,110.74
-0.97,-0.27,-0.58,18.34,39.2,-53.06
-1.12,-0.26,-0.57,-13.79,38.43,-50.54
-1.18,-0.24,-0.62,-18.97,37.52,-50.89
-1.23,-0.15,-0.65,-11.06,31.22,-55.23
-1.19,-0.07,-0.62,0.07,20.72,-64.75
-1.1,-0.1,-0.54,17.5,13.79,-74.97
-1,-0.17,-0.41,34.86,12.04,-85.33
-0.96,-0.2,-0.34,43.75,6.65,-94.01
-1.03,-0.19,-0.34,40.46,-3.29,-98.98
-1.03,-0.22,-0.43,35.77,-18.27,-100.1
-0.92,-0.16,-0.33,36.75,-18.83,-103.53
-0.8,-0.21,-0.3,24.01,-6.86,-99.12
-0.73,-0.23,-0.25,22.47,-9.38,-89.81
-0.76,-0.23,-0.13,14.84,-3.57,-83.37
-0.9,-0.33,-0.2,25.62,2.59,-80.43
-0.94,-0.21,-0.12,14.98,-1.61,-79.17
-0.92,-0.21,-0.12,12.39,-0.91,-77.77
-0.91,-0.19,-0.09,5.67,5.74,-73.08
-0.9,-0.17,-0.11,24.15,22.68,-72.59
-0.98,-0.13,-0.1,32.34,23.1,-71.82
-1,-0.09,-0.11,31.92,17.92,-71.75
-0.99,-0.07,-0.14,27.79,13.09,-70.7
-0.95,-0.04,-0.18,23.1,12.81,-70.14
-0.93,-0.06,-0.21,16.59,16.66,-68.46
-0.93,-0.1,-0.16,16.94,18.48,-67.97
-0.9,-0.2,-0.12,20.93,21.28,-67.2
-0.92,-0.28,-0.16,25.48,23.94,-67.34
-0.98,-0.3,-0.24,25.83,24.36,-68.81
-1.01,-0.26,-0.33,25.27,22.89,-69.86
-1.05,-0.19,-0.38,24.01,19.95,-70.07
-1.07,-0.09,-0.4,20.58,16.31,-69.3
-1.09,0.03,-0.38,14.42,11.2,-67.62
-1.13,0.07,-0.34,7.7,4.27,-65.87
-1.15,0.06,-0.32,0.28,-1.89,-64.4
-1.15,0.01,-0.31,-14.21,-9.31,-59.78
-1.16,-0.03,-0.26,-26.81,-12.81,-51.8
-1.2,-0.07,-0.21,-33.6,-14.63,-43.54
-1.22,-0.09,-0.18,-36.4,-20.23,-35.49
-1.21,-0.13,-0.08,-34.65,-31.22,-28
-1.15,-0.18,0.01,-24.92,-32.34,-18.97
-1.2,-0.18,0.1,13.23,-32.27,-11.06
-1.34,-0.15,0.19,28.49,-26.67,0.21
-1.48,-0.03,0.18,59.85,-22.47,11.55
-1.6,0.17,0.1,82.39,-29.61,25.83
-1.66,0.45,0.06,84.7,-47.88,43.26
-1.62,0.64,0.1,75.53,-72.03,54.74
-1.52,0.72,0.24,71.05,-82.88,66.57
-1.41,0.77,0.2,71.12,-75.6,84.77
-1.31,0.69,-0.13,37.73,-70.63,86.59
-1.24,0.36,-0.36,6.16,-68.11,95.69
-1.12,0.09,-0.39,-17.01,-70.28,106.4
-1.05,-0.24,-0.38,-43.26,-60.55,114.17
-0.98,-0.53,-0.39,-63.35,-37.59,117.46
-1.03,-0.88,-0.48,-61.18,-23.8,122.43
-1.09,-1.1,-0.52,-29.26,-5.25,133.07
-1.27,-1.1,-0.68,-19.32,-15.26,142.94
-1.39,-1.1,-0.67,-18.97,-26.88,146.65
-1.48,-1.15,-0.62,-14.35,-41.72,138.81
-1.33,-1.19,-0.52,13.23,-41.72,133.07
-1.15,-0.85,-0.56,35.42,-31.78,137.2
-1.13,-0.58,-0.44,44.73,-25.69,140.21
-1.18,-0.42,-0.34,39.27,-30.31,137.69
-0.98,-0.49,-0.22,23.73,-33.95,134.82
-0.84,-0.5,-0.16,4.27,-28.91,135.24
-0.73,-0.53,-0.12,-12.6,-24.64,137.55
-0.74,-0.51,-0.1,-29.82,-20.44,138.11
-0.74,-0.57,-0.16,-37.8,-22.47,135.1
-0.76,-0.58,-0.23,-41.65,-33.39,130.41
-0.7,-0.65,-0.22,-37.38,-43.33,125.02
-0.66,-0.67,-0.15,-33.88,-46.06,116.41
-0.64,-0.67,-0.14,-31.85,-45.64,103.39
-0.58,-0.59,-0.06,-38.01,-41.23,91.98
-0.51,-0.58,-0.08,-48.86,-30.94,79.8
-0.49,-0.59,-0.16,-58.31,-27.37,66.64
-0.42,-0.6,-0.21,-63.35,-27.02,54.67
-0.32,-0.59,-0.2,-65.94,-23.94,44.66
-0.24,-0.61,-0.23,-68.6,-17.29,35.77
-0.23,-0.68,-0.23,-65.87,-11.62,23.8
-0.22,-0.7,-0.23,-63.7,-9.66,9.03
-0.24,-0.73,-0.24,-61.11,-2.52,8.12
-0.32,-0.71,-0.25,-44.38,-2.1,5.11
-0.41,-0.71,-0.18,-16.24,-0.56,3.57
-0.47,-0.66,-0.04,-7.14,9.52,2.94
-0.6,-0.53,-0.08,-1.54,21.21,3.15
-0.8,-0.18,-0.14,4.69,25.48,13.93
-1.01,0.24,0.01,-0.91,30.52,29.26
-1.44,0.6,0.49,-21.21,33.39,34.93
-1.76,0.77,0.54,-34.86,0.91,16.52
-1.91,1.12,0.81,-32.69,-41.02,12.32
-1.79,1.74,0.86,9.59,-23.87,14.77
-1.91,2.36,0.56,47.25,-1.75,13.58
-1.93,2.18,0.31,35,4.76,11.34
-1.55,1.36,0.11,13.86,7.21,21.98
-1.26,0.69,-0.13,-10.92,2.24,25.48
-0.93,0.06,-0.2,-33.46,2.24,23.73
-0.7,-0.29,-0.25,-52.29,6.86,7.49
-0.46,-0.63,-0.31,-55.72,17.43,-24.08
-0.33,-0.86,-0.07,-59.15,33.74,-61.88
-0.85,-0.68,0.28,-51.66,35.56,-72.94
-1.55,-0.46,0.67,-34.37,14.35,-59.22
-1.62,-0.17,0.55,-2.03,15.47,-40.11
-1.28,-0.05,0.2,10.64,31.92,-47.46
-1.13,0.04,0.12,21.49,68.32,-75.32
-1.22,0.02,0.02,39.69,107.24,-93.8
-1.35,-0.24,-0.2,83.72,132.86,-77.91
-1.44,-0.81,-0.5,153.3,127.05,-3.22
-0.69,-0.91,-0.72,173.04,70.91,19.6
-0.1,-1.34,-0.55,161.7,69.37,-22.96
0.05,-1.98,-0.64,151.13,98.07,-76.37
-0.24,-1.71,-0.85,94.08,86.8,-74.55
-0.54,-0.71,-0.79,76.23,47.39,-63.07
-0.58,-0.47,-0.45,58.59,42.98,-55.09
-0.88,-0.26,-0.37,39.13,50.96,-52.22
-1.15,-0.25,-0.43,16.17,43.33,-49.42
-1.24,-0.28,-0.5,-2.03,34.09,-49.56
-1.25,-0.22,-0.53,-5.46,29.89,-56.28
-1.21,-0.07,-0.56,-5.46,22.61,-67.48
-1.13,-0.12,-0.57,10.01,17.99,-75.81
-1.05,-0.18,-0.48,32.41,17.08,-89.11
-1,-0.18,-0.4,42.07,14.35,-96.39
-0.97,-0.22,-0.39,49.63,4.9,-99.05
-1.06,-0.19,-0.45,49.07,-6.02,-100.1
-1,-0.15,-0.5,45.57,-18.9,-101.22
-0.74,-0.22,-0.39,48.65,-22.75,-95.13
-0.65,-0.22,-0.22,32.13,-6.72,-86.45
-0.75,-0.42,-0.33,16.1,-2.52,-79.73
-0.88,-0.36,-0.21,16.45,-7.28,-77.63
-0.93,-0.25,-0.13,8.05,-6.86,-79.45
-0.94,-0.2,-0.15,5.25,-9.87,-79.73
-0.95,-0.07,-0.15,2.45,-8.05,-78.82
-0.88,-0.16,-0.05,9.24,9.45,-71.89
-0.95,-0.14,-0.1,16.17,18.9,-71.26
-0.98,-0.15,-0.08,25.9,23.38,-69.44
-1,-0.1,-0.07,33.46,20.72,-67.34
-0.96,-0.1,-0.08,35.63,20.86,-64.4
-0.91,-0.12,-0.1,38.29,24.08,-63.28
-0.88,-0.18,-0.16,40.6,28,-62.58
-0.87,-0.27,-0.22,41.58,29.75,-63
-0.87,-0.34,-0.27,40.67,29.68,-63.84
-0.89,-0.34,-0.31,38.78,28.49,-66.36
-0.9,-0.26,-0.35,36.19,27.23,-67.06
-0.97,-0.17,-0.38,31.71,24.43,-68.74
-1.04,-0.11,-0.38,26.74,19.39,-68.18
-1.08,-0.03,-0.35,20.09,13.65,-68.25
-1.11,0.05,-0.29,15.68,8.68,-67.48
-1.14,0.09,-0.26,10.29,3.71,-65.59
-1.17,0.04,-0.27,3.5,0.28,-62.23
-1.18,-0.01,-0.28,-7.21,-4.9,-56.98
-1.21,-0.05,-0.26,-18.9,-8.47,-49.21
-1.25,-0.07,-0.21,-32.13,-11.13,-41.23
-1.27,-0.1,-0.15,-33.88,-16.52,-33.81
-1.27,-0.14,-0.06,-26.32,-23.66,-28.21
-1.23,-0.17,0.03,-11.76,-31.08,-21.84
-1.2,-0.22,0.1,5.18,-32.48,-10.71
-1.23,-0.17,0.15,26.18,-25.27,0.56
-1.37,-0.04,0.15,47.11,-19.88,11.69
-1.52,0.12,0.1,69.79,-21.42,24.99
-1.61,0.33,0.03,74.69,-36.19,39.34
-1.63,0.5,0.08,66.36,-58.66,53.41
-1.56,0.64,0.24,61.81,-76.37,71.47
-1.48,0.67,0.3,61.53,-79.45,82.74
-1.34,0.47,0.01,49.56,-68.95,91.49
-1.27,0.25,-0.26,7.07,-62.65,98.14
-1.19,0.04,-0.43,-2.38,-63.49,102.2
-1.05,-0.16,-0.53,-23.8,-57.19,103.81
-0.99,-0.35,-0.48,-52.78,-52.92,110.46
-0.95,-0.71,-0.43,-51.73,-42.84,117.32
-0.94,-0.87,-0.53,-42.63,-3.29,125.37
-1.13,-0.91,-0.68,-33.74,-13.79,133.42
-1.29,-0.93,-0.81,-42.63,-26.39,140.21
-1.39,-0.97,-0.74,-44.66,-46.62,143.71
-1.35,-0.93,-0.53,-44.59,-47.95,136.29
-1.27,-0.9,-0.47,-33.6,-43.47,128.38
-1.17,-0.69,-0.46,-17.5,-37.87,128.59
-1.25,-0.54,-0.4,1.4,-38.85,127.33
-1.13,-0.48,-0.28,8.89,-39.83,121.87
-0.92,-0.58,-0.2,-0.35,-39.27,121.8
-0.76,-0.65,-0.16,-16.59,-34.44,126.63
-0.73,-0.61,-0.19,-24.99,-29.05,129.01
-0.77,-0.57,-0.23,-24.15,-26.18,125.93
-0.77,-0.55,-0.25,-25.41,-31.36,121.94
-0.75,-0.56,-0.2,-28.14,-37.45,117.39
-0.7,-0.59,-0.2,-24.99,-43.54,115.15
-0.67,-0.5,-0.13,-33.67,-43.82,109.06
-0.65,-0.5,-0.08,-46.13,-41.16,100.94
-0.59,-0.55,-0.12,-53.97,-40.53,92.05
-0.54,-0.56,-0.16,-60.97,-40.32,79.87
-0.53,-0.55,-0.17,-69.72,-37.73,66.85
-0.5,-0.57,-0.19,-78.89,-37.31,54.25
-0.39,-0.61,-0.21,-83.58,-34.09,45.22
-0.32,-0.65,-0.24,-80.36,-26.46,36.82
-0.29,-0.71,-0.29,-76.37,-18.9,28.21
-0.29,-0.77,-0.28,-70.63,-14.35,0.77
-0.28,-0.84,-0.27,-59.57,-11.97,8.54
-0.31,-0.85,-0.23,-35.28,-7.7,2.52
-0.39,-0.86,-0.14,-17.64,0.28,-2.59
-0.51,-0.82,0,9.66,11.83,-3.5
-0.61,-0.58,-0.03,21.35,29.19,-1.47
-0.77,-0.27,-0.12,29.47,40.67,8.05
-0.99,0.15,-0.05,25.2,50.05,34.02
-1.28,0.58,0.21,11.55,50.68,47.53
-1.55,0.77,0.25,-0.42,30.59,36.12
-1.51,0.97,0.22,-8.4,4.55,17.78
-1.61,1.49,0.57,17.43,12.11,20.23
-1.98,2.18,0.66,42.21,9.94,30.31
-2.11,2.39,0.45,51.38,-0.63,26.53
-1.7,1.52,0.18,27.72,-7.28,26.11
-1.38,0.83,0,0.21,-9.52,21.63
-1.04,0.29,-0.03,-27.65,-7.21,16.45
-0.83,-0.08,-0.07,-47.74,-2.24,10.08
-0.66,-0.41,-0.19,-64.4,2.8,-7.56
-0.48,-0.73,-0.21,-65.73,14.49,-36.54
-0.66,-0.79,0.07,-64.96,21.56,-61.46
-1.3,-0.46,0.44,-54.53,8.47,-46.83
-1.71,0.01,0.47,-55.16,-12.18,-17.43
-1.51,0.19,0.22,-50.54,-1.96,-10.22
-1.26,0.16,0.07,-14.91,32.41,-42.07
-1.12,0.1,0.16,18.27,75.25,-92.82
-1.04,-0.02,0.13,46.55,119.07,-125.3
-0.99,-0.36,-0.14,82.53,146.37,-93.03
-1.07,-1,-0.68,149.1,134.12,-2.87
-0.32,-1.2,-0.95,207.34,56.56,7.56
0.08,-1.6,-0.58,181.65,62.65,-56.63
0.1,-2.02,-0.54,102.9,79.03,-87.5
-0.37,-1.55,-0.75,36.19,79.03,-66.57
-0.66,-0.84,-0.51,29.33,59.85,-68.74
-0.88,-0.48,-0.3,37.87,48.93,-52.78
-1.12,-0.24,-0.25,38.71,49.35,-44.8
-1.32,-0.15,-0.33,28.35,34.44,-38.71
-1.29,-0.14,-0.41,0.7,29.96,-40.74
-1.22,-0.06,-0.51,8.47,29.75,-49.63
-1.12,-0.01,-0.64,7.28,28.14,-58.8
-1.03,-0.05,-0.71,24.64,24.99,-66.64
-1,-0.06,-0.64,40.81,18.9,-78.75
-0.91,-0.11,-0.5,47.25,13.79,-86.73
-0.91,-0.17,-0.39,53.83,9.38,-92.82
-1.03,-0.19,-0.36,51.52,-0.84,-96.18
-1,-0.23,-0.39,40.74,-15.4,-94.5
-0.85,-0.24,-0.37,24.64,-23.45,-92.19
-0.68,-0.37,-0.28,15.47,-22.82,-85.4
-0.69,-0.35,-0.17,0,-8.54,-82.04
-0.97,-0.37,-0.25,-0.42,-6.86,-77.77
-0.93,-0.31,-0.2,6.37,-12.18,-76.3
-0.93,-0.2,-0.12,11.41,-8.33,-76.65
-0.95,-0.13,-0.13,18.83,-2.17,-78.05
-0.96,-0.04,-0.11,17.36,0.28,-77.21
-0.96,-0.07,-0.13,21.07,2.66,-75.81
-0.95,-0.11,-0.11,16.24,9.66,-73.71
-0.97,-0.17,-0.21,14.35,17.5,-72.03
-0.99,-0.2,-0.18,17.29,15.4,-72.52
-0.96,-0.2,-0.16,13.16,12.04,-71.89
-0.91,-0.19,-0.15,10.78,11.48,-70.07
-0.87,-0.17,-0.13,12.04,14.49,-68.46
-0.86,-0.15,-0.13,14.91,17.64,-66.99
-0.85,-0.19,-0.16,18.83,20.65,-67.06
-0.86,-0.25,-0.2,21.49,23.87,-67.13
-0.92,-0.3,-0.27,22.68,24.08,-68.81
-0.98,-0.32,-0.33,21.98,21.7,-69.79
-1.03,-0.26,-0.35,19.67,17.5,-70.84
-1.07,-0.17,-0.36,17.22,13.72,-70.98
-1.09,-0.06,-0.35,14,10.43,-69.58
-1.11,-0.01,-0.34,7.35,5.39,-68.18
-1.12,-0.01,-0.34,-0.35,2.1,-66.29
-1.13,-0.07,-0.35,-11.76,-2.1,-63.7
-1.15,-0.12,-0.3,-24.5,-6.23,-58.17
-1.21,-0.15,-0.22,-33.74,-10.71,-52.15
-1.26,-0.17,-0.15,-35.21,-17.08,-45.5
-1.26,-0.22,-0.07,-26.53,-24.57,-38.85
-1.24,-0.22,-0.01,-12.81,-30.66,-31.08
-1.24,-0.2,0.03,3.15,-31.29,-22.26
-1.29,-0.18,0.03,25.06,-29.26,-14.49
-1.41,-0.07,0.06,42.14,-27.09,-2.8
-1.5,0.1,0.05,58.24,-28,9.24
-1.57,0.34,0,68.81,-35.42,25.83
-1.62,0.54,-0.01,63.56,-68.04,39.69
-1.62,0.72,0.05,50.75,-73.92,55.3
-1.55,0.8,0.2,43.05,-85.4,72.38
-1.37,0.78,0.15,29.12,-78.4,81.48
-1.27,0.45,-0.16,5.95,-71.05,90.3
-1.16,0.12,-0.37,-8.19,-66.5,98.91
-1.03,-0.12,-0.41,-17.99,-64.05,105.98
-0.78,-0.31,-0.33,-44.52,-51.1,109.2
-0.81,-0.55,-0.35,-63.49,-35.07,115.78
-0.88,-0.83,-0.37,-42.21,-19.46,123.9
-1.03,-0.89,-0.49,-29.54,-8.54,132.79
-1.28,-0.89,-0.63,-36.26,-17.29,137.2
-1.5,-0.96,-0.6,-44.52,-37.31,134.54
-1.41,-1.18,-0.46,-25.48,-39.83,125.44
-1.33,-0.98,-0.46,-12.6,-39.41,123.48
-1.1,-0.78,-0.44,0.84,-38.85,130.83
-1.09,-0.56,-0.45,16.94,-35,137.2
-1.09,-0.52,-0.26,17.01,-38.64,136.22
-0.92,-0.63,-0.26,13.93,-39.76,134.96
-0.82,-0.59,-0.19,2.03,-35.77,138.6
-0.74,-0.55,-0.15,-10.85,-28.21,139.79
-0.76,-0.53,-0.12,-27.93,-24.08,140.7
-0.75,-0.58,-0.22,-31.57,-28.28,139.09
-0.75,-0.56,-0.25,-30.66,-37.45,135.1
-0.72,-0.59,-0.23,-33.53,-44.73,129.5
-0.69,-0.64,-0.22,-26.32,-44.94,118.93
-0.71,-0.57,-0.17,-28.14,-45.36,105.28
-0.67,-0.59,-0.12,-40.39,-38.64,95.69
-0.57,-0.56,-0.16,-47.39,-33.6,84.42
-0.53,-0.55,-0.17,-60.69,-29.82,71.33
-0.47,-0.58,-0.19,-68.6,-27.02,58.94
-0.39,-0.61,-0.22,-70.35,-21.42,46.55
-0.31,-0.64,-0.27,-68.95,-14.07,31.92
-0.26,-0.69,-0.26,-66.08,-10.99,18.97
-0.23,-0.73,-0.24,-63.56,-3.01,14.63
-0.25,-0.73,-0.26,-50.68,0.7,11.13
-0.28,-0.71,-0.23,-28,1.12,7.14
-0.37,-0.75,-0.09,-7.42,3.08,1.4
-0.46,-0.7,0.02,6.65,17.22,-0.28
-0.61,-0.42,-0.03,11.97,33.04,7.21
-0.84,-0.1,-0.08,15.82,39.48,23.45
-1.09,0.32,0,6.58,47.46,41.23
-1.35,0.71,0.21,-11.41,48.44,46.83
-1.64,0.95,0.11,-27.58,15.05,34.44
-1.5,1.03,0.49,-12.53,-4.97,16.66
-1.63,1.52,0.74,14.63,4.13,12.25
-1.97,2.15,0.72,31.78,7.28,14.91
-2.01,1.93,0.46,23.8,-0.98,15.19
-1.52,1.27,0.09,-2.17,-6.44,18.69
-1.26,0.71,-0.08,-32.48,-8.26,15.19
-0.99,0.26,-0.16,-55.51,-5.88,11.13
-0.79,-0.06,-0.22,-69.93,2.03,1.4
-0.61,-0.4,-0.36,-73.22,10.29,-27.23
-0.43,-0.65,-0.35,-70.91,29.82,-55.51
-0.76,-0.63,-0.1,-71.96,48.23,-68.95
-1.62,-0.44,0.33,-63.28,17.22,-51.73
-1.92,-0.17,0.59,-64.61,-17.29,-21.49
-1.62,0.08,0.24,-40.88,-3.08,-15.26
-1.34,0.04,0.17,-12.39,30.1,-44.24
-1.17,0.11,0.24,10.57,72.45,-99.61
-1.05,-0.09,0.19,32.2,112.63,-110.39
-0.93,-0.55,-0.16,75.39,129.29,-67.69
-0.81,-1.09,-0.68,169.68,97.51,4.69
-0.23,-1.3,-0.8,208.25,64.4,-4.06
0.1,-1.82,-0.64,169.75,79.94,-67.83
0.07,-2.22,-0.75,97.72,97.93,-95.2
-0.46,-1.3,-0.78,38.15,78.89,-70.7
-0.65,-0.72,-0.55,28.21,57.96,-72.24
-0.9,-0.44,-0.39,30.24,54.46,-59.43
-1.12,-0.28,-0.34,22.47,49.28,-52.99
-1.22,-0.29,-0.39,18.62,42,-47.67
-1.29,-0.28,-0.5,24.64,33.95,-50.19
-1.3,-0.15,-0.5,26.25,30.1,-61.88
-1.22,-0.02,-0.52,17.57,27.16,-73.99
-1.01,-0.08,-0.55,22.4,19.88,-83.37
-1.01,-0.1,-0.47,45.08,14.28,-91.98
-0.94,-0.1,-0.41,58.66,6.65,-97.93
-0.95,-0.09,-0.5,57.33,1.82,-101.5
-1,-0.07,-0.41,47.04,-3.85,-102.27
-0.98,-0.04,-0.49,28.35,-18.55,-97.09
-0.74,-0.21,-0.41,34.51,-20.09,-94.43
-0.74,-0.23,-0.31,27.93,-2.8,-89.11
-0.84,-0.32,-0.31,21.77,-6.58,-83.02
-0.95,-0.19,-0.19,6.3,-9.59,-81.27
-0.94,-0.28,-0.23,17.22,-11.06,-78.75
-0.94,-0.21,-0.13,25.83,-10.92,-75.53
-0.95,-0.08,-0.13,18.9,-12.25,-73.57
-0.95,-0.08,-0.08,3.64,-12.88,-68.04
-0.9,-0.07,-0.07,6.09,10.99,-66.29
-0.91,-0.12,-0.09,11.69,19.11,-66.29
-0.97,-0.13,-0.08,12.32,19.11,-65.31
-0.96,-0.2,-0.12,14.77,17.29,-65.31
-0.91,-0.24,-0.13,21.07,19.46,-65.1
-0.89,-0.29,-0.14,28.35,23.52,-65.17
-0.76,-0.35,-0.16,34.23,25.48,-65.66
-0.86,-0.4,-0.19,38.85,28.14,-67.13
-0.89,-0.43,-0.25,41.51,29.05,-68.88
-0.93,-0.4,-0.29,38.92,25.83,-71.26
-0.97,-0.33,-0.34,31.99,21.21,-71.82
-1.03,-0.23,-0.35,24.57,16.66,-70.63
-1.1,-0.09,-0.31,18.69,11.83,-69.79
-1.14,0,-0.28,12.81,5.67,-68.32
-1.15,0.05,-0.26,7.42,1.54,-66.43
-1.14,0.05,-0.26,-0.49,-1.82,-63.35
-1.14,0.02,-0.26,-9.87,-5.74,-58.1
-1.16,0,-0.22,-22.89,-10.29,-49.7
-1.21,-0.01,-0.13,-29.61,-14,-37.52
-1.25,-0.02,-0.04,-22.54,-15.96,-29.89
-1.25,-0.06,0.03,-4.06,-21.07,-22.05
-1.22,-0.11,0.06,24.29,-24.99,-13.23
-1.24,-0.12,0.08,42.49,-24.85,-2.73
-1.33,-0.04,0.09,56.07,-23.38,8.75
-1.46,0.09,0.09,67.13,-23.38,20.3
-1.58,0.3,0.05,73.08,-30.03,36.19
-1.61,0.46,0.05,72.94,-49.77,50.19
-1.57,0.62,0.18,73.5,-67.9,61.18
-1.49,0.64,0.24,71.61,-74.9,75.46
-1.39,0.48,-0.05,62.23,-66.22,87.01
-1.38,0.35,-0.31,43.61,-61.32,96.11
-1.26,0.16,-0.47,21.91,-66.15,104.51
-0.99,-0.01,-0.48,-29.12,-67.27,114.45
-0.86,-0.29,-0.36,-75.81,-56.84,126.28
-0.92,-0.71,-0.4,-75.18,-41.79,132.02
-1.06,-0.94,-0.52,-53.06,-26.74,137.69
-1.19,-0.94,-0.63,-33.39,-18.27,135.03
-1.5,-0.92,-0.63,-36.12,-29.12,129.5
-1.51,-1.09,-0.52,-30.8,-39.83,122.29
-1.44,-1.12,-0.44,-12.32,-32.69,118.51
-1.28,-0.96,-0.46,0.63,-28.63,124.95
-1.15,-0.68,-0.37,2.87,-27.23,135.8
-1.17,-0.59,-0.33,8.19,-26.04,137.83
-1.1,-0.57,-0.34,1.05,-35.98,135.8
-0.89,-0.63,-0.21,-2.73,-36.89,135.73
-0.77,-0.64,-0.13,-10.22,-32.13,136.29
-0.73,-0.65,-0.09,-18.62,-25.83,134.54
-0.71,-0.68,-0.17,-21,-25.97,133.14
-0.71,-0.63,-0.22,-20.93,-31.71,130.06
-0.68,-0.63,-0.18,-22.96,-36.33,124.32
-0.67,-0.61,-0.18,-20.58,-36.33,117.88
-0.63,-0.6,-0.17,-24.29,-36.68,110.04
-0.62,-0.54,-0.15,-35.98,-35,101.92
-0.57,-0.53,-0.15,-49.7,-33.81,93.59
-0.53,-0.52,-0.19,-56.98,-33.53,82.74
-0.51,-0.52,-0.2,-65.31,-33.18,68.74
-0.44,-0.57,-0.19,-71.19,-30.66,55.02
-0.34,-0.59,-0.21,-75.32,-25.06,43.33
-0.27,-0.64,-0.24,-78.61,-15.96,29.89
-0.24,-0.7,-0.27,-77.91,-10.15,21.35
-0.23,-0.76,-0.31,-64.54,-6.79,13.51
-0.26,-0.78,-0.28,-48.37,-6.09,9.52
-0.31,-0.73,-0.19,-26.67,-3.36,3.85
-0.44,-0.78,-0.11,-9.38,7.56,0
-0.56,-0.68,0,6.44,19.39,1.61
-0.69,-0.43,-0.08,12.32,32.06,7.21
-0.88,0.02,-0.13,11.41,41.72,24.22
-1.31,0.47,0.1,0.35,45.08,45.15
-1.52,0.73,0.33,-15.19,33.95,42.63
-1.62,0.94,0.27,-20.37,1.12,18.48
-1.53,1.37,0.7,-3.43,-2.1,16.87
-1.99,2.02,0.86,32.97,5.32,27.16
-2.14,2.36,0.63,59.92,-3.78,30.38
-1.78,1.72,0.2,37.94,-6.3,30.38
-1.44,0.94,0.03,7.77,-3.99,30.31
-1.11,0.41,-0.04,-24.15,-4.76,26.25
-0.85,-0.03,-0.12,-46.41,-0.56,18.83
-0.63,-0.36,-0.24,-67.2,6.51,0.91
-0.43,-0.63,-0.33,-72.03,16.38,-27.3
-0.3,-0.74,-0.32,-75.04,33.53,-56.07
-0.54,-0.59,-0.18,-70.7,54.74,-72.38
-1.13,-0.38,0.1,-58.66,46.41,-63.7
-1.65,-0.24,0.47,-57.19,-0.49,-45.57
-1.64,-0.07,0.38,-38.5,-9.45,-30.31
-1.42,0.03,0.2,-19.11,10.36,-51.1
-1.27,0.12,0.19,3.01,64.54,-92.61
-1.36,0.1,0.19,23.73,105.28,-124.04
-1.47,-0.13,0.07,53.13,146.23,-109.55
-1.49,-0.72,-0.36,97.44,143.71,-23.38
-0.57,-0.98,-0.88,162.54,64.89,4.48
0.04,-1.44,-0.5,172.41,61.04,-53.13
0.15,-2.03,-0.56,143.64,81.27,-86.24
-0.21,-1.67,-0.63,86.31,71.47,-74.97
-0.38,-0.96,-0.56,52.85,56.21,-68.04
-0.61,-0.53,-0.44,56.91,53.83,-59.85
-0.91,-0.33,-0.43,35.77,50.33,-49.84
-1.15,-0.25,-0.46,8.47,42.49,-48.37
-1.22,-0.31,-0.52,-1.19,38.29,-46.62
-1.27,-0.21,-0.55,3.85,33.46,-49.14
-1.26,-0.09,-0.56,10.92,23.73,-55.86
-1.18,-0.04,-0.53,30.87,17.99,-64.75
-1.12,0.03,-0.46,44.8,17.08,-78.19
-0.98,0.01,-0.42,48.37,9.1,-88.13
-0.95,-0.07,-0.4,48.16,3.85,-93.59
-1,-0.08,-0.43,40.6,-7.84,-95.9
-0.93,-0.16,-0.48,31.57,-23.17,-94.71
-0.78,-0.2,-0.38,40.74,-21.07,-92.05
-0.75,-0.24,-0.3,23.17,-17.22,-85.05
-0.71,-0.25,-0.18,7.63,-10.43,-78.96
-0.84,-0.33,-0.18,-4.34,0,-75.95
-0.94,-0.32,-0.18,8.75,-1.82,-75.11
-0.93,-0.29,-0.11,13.02,-3.08,-74.13
-0.94,-0.25,-0.07,11.76,-3.57,-71.89
-0.88,-0.21,-0.05,24.5,14,-70.14
-0.93,-0.13,-0.04,30.17,17.78,-70.07
-0.97,-0.09,-0.07,28.42,15.12,-69.02
-0.96,-0.09,-0.15,26.32,14.7,-68.95
-0.95,-0.11,-0.2,21.42,15.89,-68.81
-0.93,-0.16,-0.21,15.96,17.22,-68.67
-0.92,-0.23,-0.19,16.66,18.48,-69.09
-0.89,-0.33,-0.2,20.16,20.58,-69.86
-0.89,-0.38,-0.23,24.71,23.17,-71.19
-0.91,-0.37,-0.28,28.77,24.22,-72.24
-0.94,-0.31,-0.33,31.15,24.36,-73.15
-0.97,-0.22,-0.36,30.45,22.12,-72.94
-1.02,-0.13,-0.36,27.3,18.69,-72.24
-1.07,-0.04,-0.33,21.77,14.21,-71.61
-1.13,0.08,-0.28,12.88,6.02,-70.77
-1.16,0.11,-0.26,-1.26,-1.33,-69.16
-1.14,0.07,-0.28,-12.81,-7,-64.75
-1.13,0,-0.27,-24.5,-8.05,-57.96
-1.19,-0.08,-0.25,-31.85,-7.84,-48.51
-1.26,-0.16,-0.22,-33.67,-11.9,-42.98
-1.31,-0.24,-0.18,-27.86,-22.4,-38.36
-1.28,-0.3,-0.14,-14.63,-27.79,-31.78
-1.26,-0.3,-0.09,6.93,-29.89,-22.47
-1.29,-0.19,-0.04,20.02,-28.84,-11.62
-1.4,-0.04,0.03,30.03,-27.44,-0.14
-1.51,0.09,0.02,42.63,-29.33,15.96
-1.59,0.27,-0.05,50.82,-52.15,30.38
-1.66,0.45,-0.12,43.61,-50.26,44.8
-1.65,0.61,-0.04,28.63,-71.05,59.22
-1.5,0.7,0.18,15.4,-86.17,75.53
-1.25,0.6,0.23,12.6,-84.07,82.39
-1.01,0.23,-0.1,1.68,-60.97,93.24
-0.97,-0.07,-0.24,2.31,-45.71,103.18
-0.99,-0.24,-0.3,-2.31,-40.25,103.04
-0.89,-0.4,-0.29,-17.85,-35.28,99.47
-0.8,-0.58,-0.34,-22.26,-24.92,105.49
-0.83,-0.6,-0.38,-8.05,-11.97,113.4
-1.01,-0.56,-0.57,-18.55,-13.09,120.33
-1.18,-0.6,-0.54,-34.09,-20.09,127.96
-1.31,-0.72,-0.46,-43.12,-28.35,125.72
-1.42,-0.85,-0.33,-54.11,-40.25,117.46
-1.23,-0.82,-0.27,-45.01,-34.51,115.57
-1.19,-0.58,-0.35,-43.12,-33.25,120.61
-1.11,-0.63,-0.32,-5.46,-26.32,127.82
-1.11,-0.63,-0.44,2.03,-31.36,133.56
-1.02,-0.72,-0.43,0.42,-39.34,141.68
-0.96,-0.74,-0.27,-0.98,-42.63,148.26
-0.87,-0.75,-0.14,-2.38,-40.53,152.11
-0.92,-0.68,-0.1,17.78,-37.24,151.76
-0.86,-0.68,-0.14,8.33,-40.04,147.84
-0.82,-0.6,-0.14,10.92,-43.68,144.13
-0.82,-0.55,-0.17,-2.31,-44.1,139.23
-0.81,-0.59,-0.22,6.79,-49.07,127.05
-0.75,-0.56,-0.1,-2.73,-50.82,118.65
-0.63,-0.53,-0.04,-11.2,-45.08,108.92
-0.58,-0.48,-0.08,-26.39,-38.5,97.3
-0.59,-0.46,-0.1,-42,-34.58,83.3
-0.54,-0.52,-0.16,-53.55,-32.2,69.58
-0.44,-0.58,-0.21,-58.8,-29.19,58.03
-0.35,-0.66,-0.22,-58.24,-24.29,44.87
-0.29,-0.69,-0.2,-57.33,-16.66,35.07
-0.24,-0.71,-0.22,-52.36,-12.18,26.11
-0.23,-0.73,-0.23,-43.12,-7,18.76
-0.27,-0.67,-0.25,-29.68,-0.84,15.33
-0.32,-0.65,-0.16,-10.78,3.71,9.17
-0.42,-0.59,-0.01,5.95,9.31,3.71
-0.51,-0.35,-0.06,13.51,20.37,3.99
-0.72,-0.14,-0.15,15.47,30.8,9.73
-0.95,0.12,0,16.24,31.08,16.73
-1.2,0.48,0.33,0.28,26.11,24.78
-1.52,0.74,0.52,-29.47,-1.54,17.29
-1.64,0.95,0.51,-38.78,-37.59,7.91
-1.74,1.45,0.73,-16.03,-44.03,1.33
-1.74,1.9,0.65,18.83,-4.83,-1.12
-1.83,1.99,0.49,32.27,-3.78,-4.27
-1.69,1.44,0.27,8.96,1.89,3.57
-1.46,0.89,0.06,-12.95,2.45,12.11
-1.24,0.48,-0.15,-34.23,-4.76,15.75
-0.93,0.08,-0.3,-46.27,-2.59,10.36
-0.66,-0.36,-0.4,-49.21,14.35,-15.05
-0.66,-0.68,-0.17,-50.89,32.97,-50.54
-1.27,-0.73,0.41,-45.22,25.06,-61.11
-1.82,-0.25,0.6,-21.28,16.24,-32.27
-1.73,0.16,0.17,-6.51,35.63,-12.95
-1.32,0.1,0.02,24.5,51.17,-34.23
-1.1,0.04,0.1,47.11,76.58,-75.74
-0.87,-0.19,-0.01,69.58,100.17,-87.43
-0.6,-0.58,-0.14,119.77,103.25,-58.1
-0.56,-1.1,-0.38,193.97,94.71,-3.01
-0.33,-1.38,-0.47,178.43,73.43,-12.18
-0.06,-1.96,-0.54,154.84,56.28,-57.33
-0.03,-2.25,-0.59,113.82,84.07,-83.51
-0.49,-1.32,-0.69,72.52,97.09,-70.98
-0.75,-0.75,-0.7,46.55,82.95,-69.65
-1.03,-0.41,-0.61,61.67,74.9,-64.54
-1.16,-0.25,-0.54,52.92,56.91,-57.05
-1.19,-0.18,-0.48,48.86,50.89,-52.22
-1.18,-0.13,-0.5,41.58,43.96,-53.06
-1.15,-0.04,-0.53,27.02,33.67,-59.64
-1.15,0.05,-0.59,11.2,22.54,-70.77
-1.13,-0.01,-0.62,9.87,14.14,-81.76
-1.01,-0.08,-0.55,27.09,10.64,-92.4
-0.94,-0.08,-0.46,37.52,7.84,-101.15
-0.94,-0.1,-0.41,40.04,4.13,-105.84
-1,-0.16,-0.43,41.72,-5.88,-107.45
-0.99,-0.22,-0.44,33.32,-17.71,-107.24
-0.86,-0.26,-0.41,20.93,-26.18,-103.74
-0.68,-0.29,-0.31,12.53,-22.68,-98.7
-0.77,-0.34,-0.3,3.15,-16.66,-92.05
-0.85,-0.33,-0.23,-9.66,-16.73,-88.55
-0.94,-0.31,-0.2,-6.93,-15.54,-90.44
-0.96,-0.22,-0.13,-8.05,-14,-90.86
-0.96,-0.3,-0.13,-16.03,-18.2,-87.5
-0.87,-0.2,-0.06,3.71,4.06,-85.4
-0.91,-0.19,-0.07,2.87,15.96,-81.48
-0.95,-0.15,-0.03,5.18,14.14,-80.71
-0.95,-0.13,-0.03,11.76,14.56,-79.94
-0.92,-0.11,-0.04,17.15,16.87,-77.84
-0.9,-0.12,-0.06,25.9,21.07,-76.79
-0.88,-0.22,-0.09,33.53,26.6,-75.88
-0.9,-0.32,-0.14,36.96,31.22,-74.41
-0.96,-0.37,-0.2,39.48,30.87,-73.15
-0.99,-0.33,-0.24,39.69,28.21,-71.75
-1.02,-0.24,-0.26,37.31,24.99,-70.63
-1.06,-0.13,-0.29,31.78,20.58,-68.67
-1.1,-0.02,-0.31,23.94,15.89,-66.64
-1.12,0.07,-0.29,19.81,11.27,-64.54
-1.25,0.13,-0.25,13.93,6.3,-64.12
-1.16,0.08,-0.26,6.93,2.52,-62.72
-1.17,-0.02,-0.3,-3.01,-3.57,-59.78
-1.18,-0.07,-0.28,-17.22,-10.78,-53.41
-1.2,-0.08,-0.18,-28.84,-15.75,-44.24
-1.23,-0.07,-0.1,-27.51,-20.16,-35.63
-1.21,-0.08,-0.03,-15.82,-25.62,-27.51
-1.14,-0.14,0.01,-1.05,-34.02,-18.69
-1.14,-0.21,0.03,34.51,-32.34,-10.22
-1.22,-0.2,0.05,36.68,-26.25,-1.05
-1.36,-0.1,0.05,50.05,-21.35,8.89
-1.54,0.07,0.03,65.17,-23.31,20.72
-1.64,0.35,0.05,71.89,-36.05,37.03
-1.65,0.59,0.14,74.2,-53.83,49.91
-1.61,0.73,0.27,73.08,-70.77,62.93
-1.51,0.78,0.19,65.52,-71.33,76.16
-1.4,0.71,-0.11,47.53,-63.49,89.04
-1.37,0.56,-0.46,15.82,-63.28,99.4
-1.26,0.36,-0.59,-16.17,-70.14,107.59
-1.1,0.02,-0.47,-49.21,-73.43,113.75
-0.97,-0.39,-0.38,-73.29,-54.39,120.47
-0.88,-0.72,-0.42,-85.4,-33.18,129.29
-0.99,-0.97,-0.64,-75.88,-17.92,140.07
-1.25,-1.06,-0.69,-59.5,-16.94,146.58
-1.51,-1.13,-0.63,-50.4,-29.89,145.81
-1.57,-1.29,-0.44,-45.01,-37.03,132.23
-1.55,-1.32,-0.47,-26.25,-37.38,126.84
-1.23,-1.06,-0.51,6.37,-32.34,133.98
-1.15,-0.76,-0.49,28.77,-29.96,142.8
-1.17,-0.65,-0.39,22.96,-36.61,142.59
-0.99,-0.67,-0.2,15.82,-40.39,140.91
-0.81,-0.62,-0.1,0.91,-34.3,140.42
-0.71,-0.6,-0.06,-11.2,-27.09,139.58
-0.68,-0.59,-0.08,-24.22,-23.52,139.79
-0.69,-0.63,-0.08,-34.72,-27.93,138.11
-0.67,-0.64,-0.12,-40.67,-36.05,134.75
-0.69,-0.68,-0.16,-39.48,-43.4,129.36
-0.67,-0.7,-0.13,-33.25,-45.36,119.07
-0.64,-0.71,-0.09,-40.04,-45.43,111.72
-0.59,-0.66,-0.1,-44.52,-45.29,99.54
-0.52,-0.62,-0.14,-49.35,-43.96,88.13
-0.49,-0.61,-0.16,-57.75,-41.58,74.69
-0.44,-0.64,-0.2,-63,-39.06,61.25
-0.33,-0.64,-0.21,-65.94,-35,49.21
-0.22,-0.69,-0.26,-66.5,-25.27,38.78
-0.2,-0.86,-0.27,-65.59,-18.13,27.3
-0.2,-0.84,-0.29,-55.65,-15.12,19.18
-0.22,-0.86,-0.3,-38.64,-13.86,13.02
-0.25,-0.81,-0.3,-19.53,-9.1,9.8
-0.33,-0.82,-0.21,4.13,0,3.29
-0.49,-0.81,0.02,21.63,7.07,-1.19
-0.6,-0.56,-0.01,26.25,22.33,-3.78
-0.78,-0.13,-0.1,23.38,36.19,3.43
-1.06,0.28,0.01,12.18,46.13,21
-1.59,0.64,0.48,-9.94,35.63,30.24
-1.86,0.91,0.36,-29.61,-5.11,21.49
-1.83,1.29,0.53,-22.96,-39.06,24.08
-1.78,1.83,0.79,18.41,-25.27,24.43
-1.97,2.48,0.59,48.51,-4.55,1.96
-1.96,2.09,0.37,41.51,1.26,13.44
-1.56,1.29,0.15,20.51,2.24,22.4
-1.22,0.65,-0.03,-13.16,-3.15,25.55
-0.99,0.1,-0.15,-38.57,-5.6,27.23
-0.77,-0.32,-0.21,-52.29,-1.68,12.95
-0.56,-0.65,-0.32,-57.4,7.77,-17.22
-0.35,-0.77,-0.23,-58.45,24.85,-49.07
-0.66,-0.7,0.01,-62.3,36.47,-61.81
-1.27,-0.37,0.42,-55.72,23.38,-53.76
-1.55,-0.13,0.49,-42,13.79,-37.8
-1.46,0.09,0.27,-18.13,14.49,-34.02
-1.16,-0.02,0.22,0.77,40.88,-58.38
-1.07,0,0.17,13.51,78.61,-95.9
-1.12,-0.08,0.01,38.01,114.45,-116.76
-1.26,-0.5,-0.24,85.61,132.37,-70.77
-1.37,-0.99,-0.67,127.68,118.65,5.95
-0.37,-1.18,-0.72,149.45,48.79,-12.11
-0.12,-1.53,-0.44,139.58,59.15,-53.62
-0.09,-1.63,-0.42,80.99,86.94,-82.81
-0.34,-1.33,-0.64,43.68,93.03,-73.08
-0.58,-0.72,-0.72,48.65,72.59,-65.59
-0.82,-0.41,-0.58,52.71,54.46,-57.4
-0.96,-0.28,-0.47,47.18,51.17,-50.68
-1.14,-0.23,-0.45,22.75,40.39,-50.68
-1.2,-0.25,-0.47,-5.32,33.95,-53.2
-1.22,-0.23,-0.52,-12.46,28.77,-58.8
-1.21,-0.13,-0.56,-8.89,21.28,-67.83
-1.13,-0.13,-0.55,8.47,14.21,-76.58
-1.05,-0.12,-0.48,28.42,9.31,-87.15
-0.97,-0.15,-0.39,36.82,6.79,-94.08
-0.98,-0.21,-0.36,43.89,4.34,-96.46
-1.04,-0.19,-0.36,46.27,-0.49,-97.93
-1.02,-0.16,-0.39,35.07,-12.95,-97.65
-0.81,-0.19,-0.36,24.99,-20.16,-94.85
-0.73,-0.23,-0.29,23.87,-10.36,-90.86
-0.69,-0.33,-0.3,14,-2.87,-83.37
-0.72,-0.36,-0.24,13.93,0.7,-77.42
-0.86,-0.25,-0.13,4.48,4.27,-76.02
-0.93,-0.2,-0.13,0.56,0.49,-78.26
-0.92,-0.17,-0.09,7.63,0.98,-77.28
-0.99,-0.07,-0.11,8.19,1.47,-75.95
-0.95,-0.14,-0.05,6.37,6.93,-73.22
-0.98,-0.12,-0.06,3.29,13.44,-71.75
-1,-0.17,-0.09,11.2,16.66,-72.38
-0.98,-0.2,-0.1,14.35,16.94,-71.26
-0.93,-0.22,-0.13,16.17,18.97,-69.93
-0.89,-0.23,-0.17,19.67,23.24,-69.3
-0.86,-0.24,-0.2,22.19,25.69,-69.3
-0.86,-0.27,-0.24,23.38,26.11,-69.44
-0.88,-0.3,-0.27,24.85,24.99,-70.14
-0.92,-0.29,-0.3,25.34,21.84,-70.7
-0.98,-0.27,-0.33,22.75,18.41,-70.77
-1.02,-0.23,-0.36,21.07,15.75,-70.42
-1.06,-0.18,-0.37,19.81,12.6,-70.07
-1.09,-0.11,-0.35,15.96,8.54,-69.44
-1.11,-0.04,-0.32,8.47,4.69,-68.25
-1.14,0,-0.3,-3.15,0.84,-66.99
-1.16,-0.02,-0.28,-15.33,-4.9,-63.77
-1.18,-0.05,-0.23,-28.49,-10.36,-57.12
-1.21,-0.09,-0.16,-37.38,-16.03,-49.35
-1.24,-0.12,-0.08,-31.92,-21.07,-42.35
-1.23,-0.16,-0.02,-17.01,-25.06,-36.19
-1.23,-0.2,-0.03,1.05,-28.63,-26.88
-1.24,-0.23,-0.04,16.59,-31.01,-17.36
-1.32,-0.14,-0.01,29.61,-31.99,-5.88
-1.41,-0.01,0.06,40.95,-33.46,5.74
-1.47,0.13,0.07,61.67,-32.27,18.13
-1.55,0.3,-0.02,73.29,-38.01,31.57
-1.59,0.48,-0.03,65.59,-52.85,44.45
-1.58,0.7,0.07,53.27,-68.39,63.56
-1.52,0.76,0.18,39.27,-77.28,77.07
-1.35,0.55,0.03,28.56,-71.05,83.65
-1.26,0.23,-0.25,10.01,-64.33,93.24
-1.14,-0.03,-0.39,-1.12,-63.35,100.94
-0.97,-0.18,-0.36,-19.6,-66.08,107.24
-0.81,-0.43,-0.32,-46.06,-54.81,113.05
-0.83,-0.65,-0.35,-49.7,-38.85,122.22
-0.92,-0.77,-0.41,-31.08,-13.72,127.61
-1.21,-0.83,-0.55,-17.99,-13.86,130.13
-1.33,-0.92,-0.55,-19.39,-22.19,133.7
-1.45,-0.96,-0.49,-30.8,-32.27,128.52
-1.35,-1.06,-0.39,-26.11,-34.65,121.94
-1.21,-0.79,-0.45,-20.09,-31.5,124.67
-1.08,-0.64,-0.41,-6.51,-30.87,130.48
-1.1,-0.51,-0.44,0.77,-30.52,131.95
-1.06,-0.48,-0.41,2.66,-34.37,128.66
-0.93,-0.52,-0.29,-8.89,-37.59,130.34
-0.8,-0.51,-0.13,-27.79,-32.48,132.65
-0.71,-0.58,-0.16,-37.87,-29.4,136.08
-0.72,-0.62,-0.16,-40.11,-26.74,135.38
-0.78,-0.63,-0.22,-37.52,-26.88,131.74
-0.8,-0.62,-0.3,-32.41,-34.23,127.19
-0.78,-0.6,-0.32,-26.81,-38.5,121.31
-0.73,-0.51,-0.23,-33.39,-38.78,113.61
-0.68,-0.5,-0.21,-45.36,-35.07,106.54
-0.63,-0.51,-0.26,-48.44,-34.58,97.37
-0.57,-0.48,-0.22,-53.97,-33.6,85.05
-0.55,-0.46,-0.19,-60.83,-27.86,71.12
-0.54,-0.48,-0.2,-70.56,-25.2,56
-0.47,-0.54,-0.22,-80.15,-23.24,44.03
-0.37,-0.64,-0.24,-80.01,-17.71,34.65
-0.32,-0.69,-0.24,-77.28,-13.86,25.13
-0.29,-0.74,-0.22,-74.62,-11.13,11.48
-0.29,-0.78,-0.2,-62.65,-3.71,8.05
-0.32,-0.73,-0.2,-50.19,-0.35,6.02
-0.43,-0.76,-0.02,-33.25,-3.22,-0.35
-0.59,-0.75,0.23,-15.75,-1.19,-1.33
-0.7,-0.55,0.16,1.05,13.51,7.91
-0.84,-0.22,-0.06,8.89,24.36,20.58
-0.97,0.07,-0.05,10.36,38.36,34.86
-1.15,0.57,0.15,5.32,53.69,45.01
-1.35,0.81,0.15,-0.77,47.25,36.75
-1.43,0.98,0.06,-8.89,11.62,18.34
-1.4,1.29,0.47,8.89,21.49,10.57
-1.83,1.8,0.62,23.8,21.07,17.99
-2.01,2.02,0.47,28.14,5.32,25.62
-1.66,1.64,0.14,15.75,-1.61,24.22
-1.4,0.94,-0.03,-4.55,-2.31,20.09
-1.16,0.45,-0.04,-27.58,-1.4,13.58
-0.87,0.08,-0.07,-50.12,1.61,7.42
-0.68,-0.22,-0.1,-68.18,5.46,-5.95
-0.49,-0.55,-0.24,-72.94,13.79,-32.97
-0.37,-0.72,-0.2,-78.75,30.24,-66.99
-0.79,-0.67,0.09,-82.32,37.59,-83.37
-1.52,-0.4,0.51,-71.82,7.84,-61.25
-1.9,-0.06,0.64,-68.88,-23.94,-27.79
-1.72,0.16,0.25,-42.91,-1.89,-22.89
-1.39,0.05,0.13,-5.04,38.71,-57.05
-1.29,0.09,0.19,20.79,89.74,-102.76
-1.3,-0.03,0.09,37.94,133.56,-111.79
-1.38,-0.66,-0.31,83.02,154.7,-25.9
-0.91,-0.99,-1,158.83,89.46,29.12
0.17,-1.33,-0.8,230.93,59.29,-7.42
0.19,-2.07,-0.72,220.99,90.58,-70.35
0.02,-2.21,-0.82,134.4,85.05,-88.48
-0.36,-1.26,-0.55,45.99,53.97,-66.5
-0.41,-0.68,-0.3,26.11,51.31,-65.45
-0.77,-0.42,-0.3,24.99,58.38,-46.97
-1.13,-0.29,-0.39,14.77,50.19,-41.09
-1.31,-0.31,-0.49,3.29,36.33,-39.27
-1.35,-0.24,-0.57,-2.8,31.22,-45.22
-1.28,-0.11,-0.61,-13.02,26.32,-53.62
-1.21,-0.02,-0.63,-10.5,20.72,-63.28
-1.11,-0.06,-0.58,20.3,18.48,-74.41
-1.02,-0.13,-0.46,47.74,16.59,-86.45
-0.93,-0.21,-0.39,63.42,7.84,-92.96
-1.01,-0.19,-0.38,68.25,-0.42,-97.23
-1.08,-0.12,-0.43,54.81,-13.51,-100.17
-0.98,-0.08,-0.44,42.77,-24.36,-100.17
-0.75,-0.15,-0.35,40.46,-20.79,-97.37
-0.66,-0.2,-0.28,26.67,-9.8,-85.4
-0.72,-0.27,-0.23,11.34,-8.61,-80.29
-0.86,-0.37,-0.24,3.92,-6.93,-79.59
-0.94,-0.28,-0.16,3.01,-8.61,-79.73
-0.94,-0.25,-0.14,4.13,-11.27,-80.08
-0.95,-0.13,-0.16,-1.05,-13.51,-78.89
-0.89,-0.19,-0.04,6.44,4.69,-72.45
-0.93,-0.08,-0.05,13.16,10.71,-74.13
-0.96,-0.1,-0.11,12.11,14.7,-70
-0.94,-0.09,-0.08,16.87,18.41,-69.51
-0.94,-0.09,-0.11,20.93,19.25,-67.97
-0.9,-0.15,-0.13,23.94,21.56,-67.34
-0.89,-0.23,-0.16,26.81,24.57,-67.62
-0.89,-0.3,-0.19,28,25.9,-68.32
-0.91,-0.35,-0.22,28.35,26.46,-69.3
-0.95,-0.33,-0.26,28.49,26.11,-70.42
-1,-0.27,-0.31,27.72,23.52,-70.7
-1.04,-0.19,-0.34,24.01,18.62,-69.44
-1.06,-0.08,-0.34,20.09,14.07,-67.55
-1.07,0.01,-0.32,17.36,10.57,-65.31
-1.09,0.08,-0.29,12.81,7.42,-62.93
-1.11,0.08,-0.29,6.72,3.43,-60.62
-1.12,0.01,-0.32,0.28,-1.68,-57.33
-1.14,-0.06,-0.31,-10.01,-4.76,-51.66
-1.19,-0.13,-0.27,-23.17,-6.86,-44.94
-1.24,-0.19,-0.22,-25.62,-11.97,-39.41
-1.26,-0.25,-0.13,-18.27,-20.58,-35.28
-1.21,-0.3,-0.07,-6.3,-27.51,-27.44
-1.17,-0.3,-0.01,6.79,-31.29,-19.25
-1.22,-0.26,0.03,19.18,-30.87,-10.15
-1.32,-0.13,0.09,31.71,-28,-0.63
-1.46,0.02,0.11,48.09,-26.25,10.36
-1.58,0.2,0.06,63.42,-31.64,23.38
-1.61,0.41,0.04,67.97,-44.73,36.4
-1.62,0.65,0.12,65.38,-63.91,54.74
-1.55,0.76,0.21,60.9,-79.24,67.55
-1.43,0.69,0.16,50.33,-79.66,78.54
-1.29,0.49,-0.05,25.41,-71.82,88.69
-1.21,0.28,-0.28,1.54,-71.61,97.44
-1.05,0.08,-0.38,-20.65,-72.1,101.01
-0.94,-0.16,-0.4,-40.6,-60.83,106.26
-0.89,-0.51,-0.4,-52.71,-45.08,109.34
-0.87,-0.76,-0.44,-48.58,-23.24,115.64
-0.91,-0.97,-0.55,-35.98,-8.68,126.98
-1.15,-0.98,-0.69,-21.07,-15.61,136.43
-1.29,-0.96,-0.72,-26.39,-28.56,141.4
-1.39,-1.02,-0.56,-33.74,-34.51,133.98
-1.38,-1.02,-0.55,-33.25,-37.8,122.22
-1.19,-0.81,-0.51,-21.28,-36.61,124.11
-1.1,-0.53,-0.49,-7.91,-36.68,130.2
-1.18,-0.38,-0.39,6.3,-34.37,128.03
-1.09,-0.43,-0.28,-4.69,-35.56,125.37
-0.91,-0.53,-0.21,-21.56,-32.55,127.82
-0.83,-0.57,-0.17,-31.5,-28.28,128.8
-0.8,-0.62,-0.17,-37.8,-26.53,130.34
-0.77,-0.64,-0.16,-39.41,-28.21,129.08
-0.75,-0.64,-0.16,-33.88,-35.14,124.53
-0.75,-0.59,-0.16,-33.67,-40.18,119.98
-0.71,-0.61,-0.16,-37.1,-44.66,115.71
-0.68,-0.6,-0.12,-37.24,-45.78,108.99
-0.65,-0.58,-0.08,-40.39,-45.01,98.98
-0.61,-0.56,-0.11,-43.47,-42.14,89.95
-0.59,-0.52,-0.12,-51.24,-39.97,80.92
-0.56,-0.52,-0.11,-62.72,-38.43,69.51
-0.48,-0.57,-0.13,-71.68,-35.35,58.17
-0.4,-0.61,-0.18,-74.83,-30.24,48.44
-0.33,-0.67,-0.2,-71.61,-21.77,37.59
-0.32,-0.87,-0.2,-65.66,-17.57,25.62
-0.29,-0.81,-0.2,-57.33,-14.98,15.26
-0.3,-0.8,-0.2,-45.78,-10.22,8.05
-0.32,-0.76,-0.18,-30.52,-3.08,3.64
-0.46,-0.76,-0.1,-2.66,4.55,-2.1
-0.54,-0.63,-0.01,11.62,17.85,-5.6
-0.64,-0.44,-0.07,16.31,35,-6.02
-0.82,-0.1,-0.09,22.54,47.25,1.68
-1.04,0.24,-0.07,18.27,54.88,18.27
-1.37,0.57,0.2,2.52,49.7,27.37
-1.55,0.83,0.29,-12.32,24.29,19.25
-1.48,1.08,0.36,-18.9,-0.28,3.22
-1.64,1.48,0.65,3.22,2.1,7.21
-1.94,2.08,0.66,30.66,1.05,19.81
-1.96,2.07,0.48,34.86,-3.92,14.42
-1.62,1.34,0.2,15.33,-6.79,17.01
-1.27,0.73,0.02,-11.76,-6.23,14.98
-1.02,0.3,-0.03,-44.45,-2.66,13.65
-0.82,-0.01,-0.14,-61.53,2.45,7.42
-0.62,-0.39,-0.34,-70.63,12.6,-15.4
-0.55,-0.69,-0.19,-67.76,25.76,-59.64
-1.02,-0.79,0.3,-64.12,16.73,-68.04
-1.8,-0.43,0.66,-49.42,-10.78,-35.07
-1.84,0.04,0.44,-56.56,-2.03,-5.88
-1.48,0.12,0.03,-26.6,21.14,-21.28
-1.22,-0.01,0.1,8.68,61.88,-60.27
-1.08,0.02,0.13,32.55,107.24,-104.23
-0.88,-0.46,-0.1,64.89,134.54,-100.03
-0.89,-0.99,-0.48,138.81,111.72,-28
-0.42,-1.24,-0.87,220.08,64.19,9.1
0.1,-1.61,-0.6,187.88,52.43,-45.08
0.21,-2.16,-0.62,135.52,66.71,-83.86
-0.12,-1.87,-0.79,87.29,82.6,-76.58
-0.51,-0.89,-0.61,37.31,70.14,-88.9
-0.71,-0.53,-0.42,32.97,75.81,-62.02
-1.19,-0.29,-0.34,35.91,64.05,-52.36
-1.27,-0.21,-0.29,28.98,52.5,-40.18
-1.32,-0.17,-0.37,27.02,41.58,-37.03
-1.32,-0.13,-0.48,24.15,34.37,-43.61
-1.22,-0.01,-0.58,17.15,29.61,-53.9
-1.12,0.04,-0.65,11.97,20.65,-66.01
-1.07,0,-0.66,17.36,11.41,-75.46
-0.96,-0.08,-0.53,36.47,5.32,-83.86
-0.9,-0.11,-0.4,47.67,2.66,-88.2
-0.94,-0.11,-0.34,46.76,-0.07,-91.14
-1.02,-0.13,-0.39,42.84,-7.56,-90.37
-0.96,-0.2,-0.46,39.2,-19.74,-87.71
-0.83,-0.26,-0.42,34.93,-23.17,-84.28
-0.77,-0.24,-0.33,20.86,-0.49,-80.5
-0.72,-0.27,-0.25,1.4,-11.83,-77
-0.76,-0.34,-0.18,-13.72,-5.32,-75.04
-0.93,-0.42,-0.24,4.55,-6.02,-75.74
-0.96,-0.29,-0.1,4.13,-9.24,-78.4
-0.94,-0.24,-0.08,-1.33,-13.09,-80.43
-0.9,-0.14,-0.1,-1.26,-8.68,-79.87
-0.87,-0.18,-0.07,4.13,5.95,-76.79
-0.93,-0.18,-0.12,3.92,10.57,-74.34
-0.93,-0.19,-0.1,6.58,13.02,-73.78
-0.93,-0.21,-0.11,6.16,15.12,-74.2
-0.9,-0.27,-0.16,12.74,19.18,-73.78
-0.88,-0.32,-0.17,18.13,22.54,-72.73
-0.87,-0.35,-0.19,23.38,23.73,-72.1
-0.87,-0.35,-0.2,27.23,24.85,-72.31
-0.88,-0.34,-0.22,29.33,24.15,-72.59
-0.91,-0.31,-0.24,30.73,23.17,-73.08
-0.95,-0.27,-0.28,29.89,21.63,-73.64
-1,-0.22,-0.32,26.04,18.9,-74.06
-1.06,-0.16,-0.32,20.79,14.7,-73.08
-1.11,-0.05,-0.31,16.59,8.96,-69.93
-1.14,0.05,-0.27,9.94,3.15,-68.74
-1.16,0.11,-0.25,-0.14,-0.98,-66.43
-1.18,0.08,-0.27,-12.18,-6.02,-63.21
-1.17,0,-0.27,-24.43,-10.85,-57.68
-1.18,-0.05,-0.21,-35.49,-14,-48.65
-1.24,-0.08,-0.14,-36.54,-17.15,-38.71
-1.27,-0.11,-0.06,-22.26,-20.51,-32.62
-1.27,-0.15,-0.02,-2.31,-25.48,-25.55
-1.28,-0.2,-0.03,17.36,-30.24,-16.73
-1.32,-0.21,-0.03,31.64,-30.66,-6.02
-1.4,-0.12,0.02,43.4,-31.29,4.62
-1.51,-0.02,0.01,57.19,-31.64,17.92
-1.6,0.18,-0.11,66.29,-36.47,30.1
-1.66,0.43,-0.17,54.81,-55.86,44.8
-1.65,0.64,-0.04,39.62,-75.6,61.04
-1.56,0.79,0.19,20.44,-85.82,73.36
-1.42,0.53,0.19,11.48,-86.17,81.27
-1.21,0.18,-0.16,4.2,-75.81,91.35
-1.03,-0.08,-0.37,-10.29,-68.04,103.88
-0.89,-0.2,-0.37,-25.97,-66.57,108.36
-0.76,-0.39,-0.27,-45.78,-50.61,110.95
-0.78,-0.6,-0.33,-51.8,-28.84,117.88
-0.89,-0.78,-0.38,-29.89,-12.11,124.6
-1.09,-0.8,-0.52,-22.4,-10.36,128.8
-1.23,-0.83,-0.55,-28.56,-22.26,132.09
-1.3,-0.95,-0.5,-31.85,-28.28,127.68
-1.32,-1.03,-0.42,-27.16,-30.94,121.8
-1.24,-0.9,-0.47,-24.78,-31.15,121.52
-1.11,-0.7,-0.47,-6.93,-28.14,125.86
-1.12,-0.52,-0.49,4.48,-31.57,128.87
-1.06,-0.49,-0.34,4.69,-35.28,129.92
-0.94,-0.52,-0.31,-6.51,-34.44,131.25
-0.85,-0.57,-0.24,-20.72,-31.64,133.21
-0.79,-0.61,-0.16,-26.74,-27.16,135.59
-0.82,-0.59,-0.13,-34.58,-26.88,137.06
-0.83,-0.63,-0.16,-32.62,-30.17,134.68
-0.8,-0.61,-0.19,-28,-36.12,131.46
-0.79,-0.57,-0.18,-36.19,-40.81,128.38
-0.79,-0.63,-0.24,-26.6,-42.21,116.83
-0.75,-0.65,-0.21,-19.53,-46.97,110.81
-0.66,-0.6,-0.07,-31.08,-43.05,103.11
-0.59,-0.57,-0.07,-36.96,-34.3,92.4
-0.54,-0.54,-0.13,-44.73,-28,77.63
-0.5,-0.57,-0.16,-53.9,-24.78,64.82
-0.42,-0.6,-0.19,-57.54,-21.21,53.06
-0.36,-0.63,-0.21,-57.4,-13.93,40.95
-0.32,-0.67,-0.21,-56.77,-8.4,24.92
-0.27,-0.73,-0.21,-55.09,-4.69,14.7
-0.31,-0.71,-0.23,-44.1,1.96,10.85
-0.34,-0.7,-0.19,-30.73,3.29,6.72
-0.44,-0.67,-0.11,-11.41,2.8,-1.47
-0.5,-0.65,-0.06,7.56,9.87,-7.42
-0.61,-0.56,-0.07,13.37,22.26,-5.6
-0.96,-0.31,-0.27,29.61,25.06,-69.93
-1.04,-0.27,-0.31,29.26,22.96,-69.16
-1.09,-0.17,-0.32,26.88,19.74,-67.9
-1.11,-0.07,-0.3,25.48,16.52,-65.73
-1.12,0.03,-0.29,23.24,13.3,-63.28
-1.15,0.09,-0.28,19.32,9.66,-60.69
-1.17,0.06,-0.3,12.74,3.78,-59.22
-1.17,-0.01,-0.34,3.57,-2.45,-55.86
-1.16,-0.06,-0.32,-15.26,-6.23,-49.63
-1.19,-0.09,-0.28,-26.25,-7.49,-41.72
-1.23,-0.12,-0.22,-28.14,-11.69,-36.19
-1.29,-0.14,-0.15,-20.02,-20.3,-31.08
-1.28,-0.21,-0.09,-7,-29.68,-23.38
-1.28,-0.21,-0.01,5.25,-33.95,-13.37
-1.34,-0.12,0.1,15.33,-33.11,-1.82
-1.46,0.01,0.11,29.68,-30.87,12.04
-1.57,0.19,0.03,50.82,-32.2,24.01
-1.67,0.36,-0.07,56.91,-46.48,37.38
-1.7,0.51,-0.11,46.27,-66.15,52.57
-1.65,0.65,0.02,28.14,-83.02,70.14
-1.52,0.68,0.17,16.94,-89.6,84.91
-1.17,0.36,0.01,3.29,-76.3,91.07
-0.99,-0.01,-0.22,-12.11,-61.74,100.94
-0.93,-0.28,-0.29,-10.22,-51.94,109.41
-0.86,-0.45,-0.25,-20.86,-44.31,108.5
-0.8,-0.65,-0.32,-39.27,-29.82,113.82
-0.82,-0.79,-0.39,-25.55,-13.51,121.17
-1.01,-0.8,-0.52,-6.65,-8.05,127.96
-1.19,-0.78,-0.59,-11.76,-35.14,132.58
-1.38,-0.84,-0.53,-22.68,-32.62,130.13
-1.34,-1.02,-0.36,-1.68,-36.96,121.87
-1.25,-0.97,-0.33,-8.75,-34.16,117.88
-1.16,-0.76,-0.37,1.4,-36.12,120.61
-1.1,-0.57,-0.33,22.68,-29.26,124.67
-1.08,-0.53,-0.33,27.37,-34.3,126.84
-0.95,-0.6,-0.28,24.15,-36.12,130.34
-0.84,-0.65,-0.22,11.41,-33.6,135.8
-0.81,-0.66,-0.14,-0.63,-29.12,140.35
-0.82,-0.65,-0.15,-3.92,-27.93,142.73
-0.83,-0.62,-0.21,0.07,-32.34,141.89
-0.78,-0.56,-0.15,-0.84,-37.94,138.32
-0.72,-0.55,-0.12,-10.08,-39.83,133.98
-0.76,-0.55,-0.23,-10.99,-42.77,124.53
-0.75,-0.56,-0.23,-11.55,-49.07,115.92
-0.67,-0.53,-0.1,-20.3,-47.39,102.06
-0.6,-0.49,-0.1,-31.22,-40.95,89.53
-0.55,-0.47,-0.13,-46.55,-33.39,75.74
-0.51,-0.51,-0.17,-57.96,-27.72,60.48
-0.43,-0.56,-0.2,-64.54,-22.89,48.79
-0.34,-0.65,-0.25,-63.98,-17.29,37.52
-0.27,-0.7,-0.28,-61.46,-9.45,27.93
-0.26,-0.73,-0.27,-53.34,-4.48,17.71
-0.24,-0.73,-0.25,-46.2,-0.63,6.3
-0.27,-0.67,-0.27,-34.65,5.11,5.25
-0.36,-0.66,-0.24,-18.2,10.36,-0.21
-0.5,-0.67,-0.11,1.82,7.91,-5.04
-0.61,-0.54,0,12.04,14.98,-1.68
-0.81,-0.32,0.03,14.42,23.1,9.17
-1.03,0.05,0.03,15.54,25.83,25.13
-1.25,0.58,0.15,0.77,31.57,43.89
-1.58,0.79,0.3,-13.23,15.96,36.05
-1.63,0.96,0.38,-22.96,-20.16,22.26
-1.65,1.36,0.78,-1.75,-22.89,17.78
-1.81,1.92,0.74,27.02,-14,19.11
-1.88,2.24,0.49,27.58,-7.49,13.23
-1.63,1.68,0.15,14.63,-5.53,16.17
-1.36,1.01,0.01,-4.06,-4.55,22.75
-1.14,0.32,-0.06,-26.46,-8.26,22.61
-0.85,-0.09,-0.09,-49.07,-5.6,18.34
-0.68,-0.39,-0.2,-56.35,0.42,2.38
-0.47,-0.64,-0.27,-51.03,17.43,-27.79
-0.47,-0.76,-0.16,-54.11,35.84,-61.18
-0.94,-0.63,0.11,-48.3,45.15,-70.63
-1.56,-0.33,0.36,-31.57,28.77,-52.85
-1.72,0.05,0.33,-22.33,20.02,-20.79
-1.52,0.29,0.08,-8.05,33.95,-29.4
-1.31,0.25,0.11,8.75,68.81,-63.84
-1.18,0.18,0.18,25.41,102.69,-97.16
-0.99,-0.16,-0.03,66.64,119.07,-87.99
-1.01,-0.77,-0.41,131.46,114.66,-16.66
-0.61,-1,-0.65,181.79,64.75,11.2
-0.13,-1.47,-0.52,154.63,57.19,-36.19
-0.01,-1.99,-0.46,110.67,72.17,-87.43
-0.25,-1.87,-0.57,48.65,82.04,-68.67
-0.69,-0.99,-0.7,41.58,59.08,-64.82
-0.87,-0.63,-0.49,59.22,49.49,-55.09
-1,-0.32,-0.39,54.25,51.8,-46.34
-1.14,-0.18,-0.42,25.41,45.43,-44.45
-1.16,-0.19,-0.49,7.35,41.65,-45.15
-1.14,-0.12,-0.57,0.49,38.57,-50.05
-1.06,-0.05,-0.66,3.64,30.52,-56.42
-1.04,-0.07,-0.75,21.91,24.5,-64.19
-1.02,-0.07,-0.65,34.72,16.94,-75.67
-0.98,-0.13,-0.48,52.85,10.85,-84.77
-0.98,-0.23,-0.39,42.77,2.24,-91.35
-1.08,-0.21,-0.36,42.14,-8.19,-95.69
-1.07,-0.12,-0.39,32.76,-17.36,-98.35
-0.93,-0.13,-0.37,23.94,-25.62,-98.84
-0.71,-0.3,-0.33,17.01,-13.37,-95.41
-0.73,-0.36,-0.33,19.18,-7.28,-87.36
-0.79,-0.4,-0.25,11.48,-10.22,-83.09
-0.87,-0.3,-0.1,1.33,-6.16,-82.11
-0.92,-0.22,-0.09,-6.72,-8.05,-82.81
-0.91,-0.15,-0.05,2.8,-4.97,-79.73
-0.91,-0.16,-0.05,9.8,1.68,-73.99
-0.92,-0.08,-0.01,23.17,12.46,-71.68
-0.96,-0.12,-0.09,30.52,14.63,-70.14
-0.98,-0.05,-0.11,26.6,16.73,-65.38
-0.96,-0.03,-0.13,24.57,18.62,-62.65
-0.95,-0.1,-0.16,21.98,21.98,-61.88
-0.92,-0.22,-0.19,23.73,26.46,-62.79
-0.9,-0.29,-0.2,26.46,27.58,-63.7
-0.9,-0.31,-0.21,30.52,27.93,-66.08
-0.91,-0.3,-0.23,35.91,27.58,-68.39
-0.93,-0.27,-0.28,38.08,26.25,-71.12
-0.96,-0.23,-0.34,37.03,23.17,-70.91
-1.01,-0.16,-0.37,30.59,17.99,-69.79
-1.03,-0.06,-0.35,24.71,13.86,-68.6
-1.05,0.03,-0.32,18.48,11.34,-67.48
-1.09,0.05,-0.32,12.39,8.89,-66.22
-1.13,0.02,-0.34,6.93,4.41,-64.89
-1.15,-0.03,-0.34,-5.46,-1.82,-61.67
-1.18,-0.08,-0.3,-18.34,-5.74,-52.57
-1.22,-0.11,-0.27,-26.53,-8.47,-45.15
-1.25,-0.14,-0.22,-26.74,-15.05,-40.67
-1.26,-0.18,-0.18,-22.12,-25.06,-18.62
-1.25,-0.26,-0.12,-15.89,-30.66,-26.67
-1.27,-0.26,-0.03,-0.98,-32.69,-17.92
-1.36,-0.17,0.11,10.71,-33.32,-7.56
-1.47,-0.02,0.15,31.08,-31.15,4.48
-1.58,0.25,0.14,58.94,-33.32,22.96
-1.64,0.45,0.08,72.87,-43.61,37.24
-1.69,0.62,0.06,67.69,-63.84,52.29
-1.63,0.74,0.18,56,-76.44,68.6
-1.53,0.79,0.23,47.39,-76.44,80.22
-1.38,0.51,-0.03,27.16,-54.46,91.49
-1.17,0.18,-0.25,5.25,-69.23,97.02
-1.05,-0.13,-0.35,-4.13,-65.1,102.9
-0.9,-0.23,-0.34,-27.02,-58.45,105.98
-0.81,-0.46,-0.37,-50.12,-46.48,110.18
-0.85,-0.67,-0.44,-48.09,-23.03,117.88
-0.92,-0.79,-0.52,-33.46,-3.57,127.12
-1.18,-0.81,-0.67,-31.85,-11.27,133.35
-1.34,-0.89,-0.67,-41.02,-27.3,138.46
-1.44,-1.05,-0.54,-36.19,-41.16,130.83
-1.41,-1.12,-0.43,-20.09,-42.98,123.55
-1.19,-0.89,-0.45,3.99,-37.8,127.19
-1.11,-0.63,-0.46,20.72,-36.75,134.4
-1.12,-0.53,-0.43,23.31,-36.89,136.57
-1.01,-0.62,-0.3,14.56,-37.38,138.04
-0.89,-0.57,-0.18,5.67,-33.11,139.37
-0.81,-0.58,-0.13,-12.74,-26.39,141.05
-0.77,-0.57,-0.12,-26.53,-23.45,141.47
-0.77,-0.64,-0.19,-26.67,-27.16,139.02
-0.79,-0.6,-0.2,-28.07,-38.5,133.91
-0.75,-0.61,-0.18,-31.36,-44.87,126.56
-0.74,-0.63,-0.19,-30.03,-47.81,115.29
-0.7,-0.61,-0.14,-30.24,-48.44,104.65
-0.61,-0.57,-0.08,-39.13,-46.13,95.27
-0.55,-0.53,-0.08,-50.89,-39.34,84.49
-0.54,-0.52,-0.14,-64.33,-34.3,67.2
-0.47,-0.57,-0.21,-71.68,-32.13,55.72
-0.34,-0.61,-0.23,-74.06,-28.42,46.55
-0.27,-0.63,-0.25,-75.32,-20.51,36.19
-0.25,-0.69,-0.25,-73.92,-14.98,26.18
-0.24,-0.75,-0.26,-66.36,-13.09,12.6
-0.22,-0.78,-0.24,-55.58,-7.21,9.1
-0.27,-0.74,-0.22,-33.25,-1.82,7.91
-0.39,-0.79,-0.1,-8.33,0.77,2.94
-0.46,-0.65,-0.01,5.88,16.94,1.89
-0.68,-0.41,-0.04,16.52,29.47,8.75
-0.92,0,-0.08,22.68,33.67,23.45
-1.12,0.42,0.04,10.78,43.82,39.41
-1.42,0.79,0.31,-4.41,35.7,35.7
-1.66,0.89,0.27,-18.62,-8.12,18.27
-1.68,1.12,0.76,-5.04,-21.84,18.9
-1.82,1.86,0.85,18.27,-18.06,20.16
-1.98,2.15,0.58,31.71,-7.14,21.42
-1.74,1.78,0.34,20.93,-2.17,21
-1.44,1.13,0.12,-1.96,-3.22,25.34
-1.2,0.6,0,-23.38,-8.33,23.31
-0.95,0.16,-0.06,-40.88,-12.32,20.86
-0.74,-0.19,-0.19,-50.47,-9.87,5.88
-0.53,-0.61,-0.27,-50.54,-1.47,-14.98
-0.35,-0.77,-0.28,-48.93,17.29,-40.95
-0.43,-0.78,-0.2,-54.04,38.85,-60.76
-0.93,-0.55,-0.05,-42.56,45.5,-60.97
-1.39,-0.24,0.36,-28.14,33.95,-45.57
-1.62,0,0.36,-2.66,24.29,-26.32
-1.54,0.14,0.27,17.29,31.29,-32.83
-1.35,0.17,0.23,28.21,55.09,-63.21
-1.22,0.19,0.21,34.72,94.99,-100.87
-1.24,0.02,0.15,69.51,124.39,-114.52
-1.3,-0.31,-0.11,104.72,137.69,-84.98
-1.21,-0.85,-0.69,151.2,106.54,-9.66
-0.54,-0.98,-0.63,166.74,49.63,-17.01
-0.02,-1.43,-0.41,117.11,57.82,-52.43
-0.02,-1.68,-0.48,81.83,79.38,-69.79
-0.4,-1.28,-0.68,61.81,82.81,-61.53
-0.66,-0.78,-0.64,66.85,58.03,-56.91
-0.73,-0.46,-0.47,61.53,57.26,-48.16
-0.94,-0.27,-0.45,42.91,59.08,-44.45
-1.13,-0.25,-0.49,18.9,49.98,-42.07
-1.21,-0.22,-0.55,2.1,40.11,-43.4
-1.19,-0.11,-0.54,-10.36,32.83,-49.42
-1.16,-0.09,-0.62,-6.93,19.11,-59.71
-1.09,-0.06,-0.56,15.33,15.82,-69.51
-1.06,-0.01,-0.41,33.67,15.89,-82.74
-0.97,-0.12,-0.39,40.53,11.69,-91
-0.96,-0.16,-0.4,49.07,7.56,-95.62
-1.07,-0.15,-0.44,48.58,-0.84,-96.74
-1.05,-0.12,-0.42,36.82,-5.11,-100.45
-0.88,-0.22,-0.46,34.65,-11.41,-98.14
-0.67,-0.38,-0.39,47.04,-6.93,-91.21
-0.73,-0.33,-0.29,34.3,-3.43,-87.29
-0.76,-0.43,-0.24,9.8,-4.76,-79.94
-0.83,-0.3,-0.12,6.23,-5.6,-77.28
-0.93,-0.18,-0.09,-0.21,-7.84,-77.14
-0.93,-0.1,-0.08,7.56,-4.9,-75.53
-0.97,0.02,-0.1,9.52,-0.98,-73.57
-0.94,-0.1,-0.11,22.19,11.62,-69.79
-0.98,-0.09,-0.15,20.72,19.67,-68.11
-0.97,-0.14,-0.12,20.3,19.46,-67.34
-0.95,-0.18,-0.13,18.34,18.83,-66.43
-0.91,-0.2,-0.13,20.02,20.58,-66.22
-0.89,-0.2,-0.13,24.36,23.52,-66.43
-0.87,-0.22,-0.15,29.05,25.97,-67.55
-0.86,-0.27,-0.19,33.39,29.54,-68.04
